File: sl1/usgs/library06/DESCRIPT/new_xrd_results_to_be_added/Rhonda_Driscoll_xrd_runs/GDS159---Clinochlore-or-Sheridanite.txt
/////////////////////////////////////////////////////////////////////////////////
/// Profile Data Ascii Dump (XRD)                                             ///
/////////////////////////////////////////////////////////////////////////////////

  Group     : Swayze
  Data      : GDS159
  File Name : GDS159.RAW

# Profile Datafile
          comment             = Clinochlore or Sheridanite
          date & time         = 08-04-14 07:20:35

# Measurement Condition
    X-ray tube
          target              = Cu
          voltage             = 40.0 (kV)
          current             = 30.0 (mA)
    Slits
          divergence slit     = 2.00000 (deg)
          scatter slit        = 2.00000 (deg)
          receiving slit      = 0.15000 (mm)
    Scanning
          drive axis          = Theta-2Theta
          scan range          =    4.000 -   65.000
          scan mode           = Continuous Scan
          scan speed          =   2.0000 (deg/min)
          sampling pitch      =   0.0200 (deg)
          preset time         =   0.60 (sec)

# Data      [ Total No. = 3051 ]
  <2Theta>   <   I   >
     4.0000       180
     4.0600       238
     4.1200       206
     4.1800       184
     4.2400       224
     4.3000       192
     4.3600       192
     4.4200       198
     4.4800       184
     4.5400       194
     4.6000       154
     4.6600       202
     4.7200       166
     4.7800       182
     4.8400       182
     4.9000       192
     4.9600       176
     5.0200       166
     5.0800       162
     5.1400       176
     5.2000       172
     5.2600       236
     5.3200       196
     5.3800       168
     5.4400       186
     5.5000       192
     5.5600       240
     5.6200       230
     5.6800       218
     5.7400       212
     5.8000       266
     5.8600       310
     5.9200       340
     5.9800       368
     6.0400       428
     6.1000       602
     6.1600       550
     6.2200       360
     6.2800       242
     6.3400       198
     6.4000       184
     6.4600       142
     6.5200       170
     6.5800       140
     6.6400       130
     6.7000       162
     6.7600       142
     6.8200       144
     6.8800       140
     6.9400       136
     7.0000       144
     7.0600       122
     7.1200       156
     7.1800       138
     7.2400       120
     7.3000       120
     7.3600       124
     7.4200       114
     7.4800       122
     7.5400       134
     7.6000       120
     7.6600       110
     7.7200       140
     7.7800       128
     7.8400       124
     7.9000       120
     7.9600       102
     8.0200       122
     8.0800       138
     8.1400       162
     8.2000       110
     8.2600       124
     8.3200       134
     8.3800       124
     8.4400       116
     8.5000       108
     8.5600       142
     8.6200       120
     8.6800       130
     8.7400       120
     8.8000       110
     8.8600       132
     8.9200       136
     8.9800       122
     9.0400       128
     9.1000       144
     9.1600       128
     9.2200       136
     9.2800       160
     9.3400       140
     9.4000       128
     9.4600       148
     9.5200       132
     9.5800       128
     9.6400       126
     9.7000       136
     9.7600       120
     9.8200        96
     9.8800       110
     9.9400       108
    10.0000        94
    10.0600       116
    10.1200       104
    10.1800        88
    10.2400       108
    10.3000       102
    10.3600       112
    10.4200       116
    10.4800        98
    10.5400       102
    10.6000       112
    10.6600       116
    10.7200       116
    10.7800       122
    10.8400        98
    10.9000       100
    10.9600       116
    11.0200       100
    11.0800       112
    11.1400       118
    11.2000       104
    11.2600       128
    11.3200       104
    11.3800       110
    11.4400        84
    11.5000       116
    11.5600       104
    11.6200       134
    11.6800       114
    11.7400       160
    11.8000       184
    11.8600       160
    11.9200       192
    11.9800       260
    12.0400       318
    12.1000       390
    12.1600       498
    12.2200       708
    12.2800       878
    12.3400       844
    12.4000       626
    12.4600       336
    12.5200       226
    12.5800       154
    12.6400       134
    12.7000       110
    12.7600        94
    12.8200        84
    12.8800        74
    12.9400        86
    13.0000        74
    13.0600        80
    13.1200        58
    13.1800        68
    13.2400        74
    13.3000        76
    13.3600        74
    13.4200        78
    13.4800        68
    13.5400        74
    13.6000        84
    13.6600        76
    13.7200        60
    13.7800        68
    13.8400        66
    13.9000        76
    13.9600        58
    14.0200        76
    14.0800        78
    14.1400        46
    14.2000        72
    14.2600        52
    14.3200        54
    14.3800        72
    14.4400        68
    14.5000        64
    14.5600        72
    14.6200        58
    14.6800        60
    14.7400        86
    14.8000        56
    14.8600        70
    14.9200        62
    14.9800        64
    15.0400        60
    15.1000        62
    15.1600        58
    15.2200        64
    15.2800        52
    15.3400        68
    15.4000        44
    15.4600        68
    15.5200        66
    15.5800        58
    15.6400        78
    15.7000        70
    15.7600        72
    15.8200        56
    15.8800        72
    15.9400        66
    16.0000        62
    16.0600        46
    16.1200        62
    16.1800        62
    16.2400        62
    16.3000        66
    16.3600        54
    16.4200        60
    16.4800        66
    16.5400        64
    16.6000        64
    16.6600        74
    16.7200        64
    16.7800        72
    16.8400        68
    16.9000        52
    16.9600        70
    17.0200        58
    17.0800        62
    17.1400        66
    17.2000        76
    17.2600        60
    17.3200        66
    17.3800        68
    17.4400        80
    17.5000        58
    17.5600        84
    17.6200        64
    17.6800        66
    17.7400        72
    17.8000        72
    17.8600       104
    17.9200       104
    17.9800        90
    18.0400       126
    18.1000       124
    18.1600       150
    18.2200       190
    18.2800       296
    18.3400       368
    18.4000       530
    18.4600       780
    18.5200      1002
    18.5800      1116
    18.6400       860
    18.7000       502
    18.7600       302
    18.8200       214
    18.8800       176
    18.9400       150
    19.0000       174
    19.0600       222
    19.1200       266
    19.1800       324
    19.2400       260
    19.3000       220
    19.3600       222
    19.4200       206
    19.4800       198
    19.5400       186
    19.6000       188
    19.6600       174
    19.7200       146
    19.7800       146
    19.8400       146
    19.9000       126
    19.9600       146
    20.0200       134
    20.0800       110
    20.1400       118
    20.2000       112
    20.2600       104
    20.3200       108
    20.3800       104
    20.4400       108
    20.5000       112
    20.5600       114
    20.6200       112
    20.6800        94
    20.7400       120
    20.8000       112
    20.8600       108
    20.9200       110
    20.9800        96
    21.0400       110
    21.1000       114
    21.1600       110
    21.2200       122
    21.2800        98
    21.3400       110
    21.4000       102
    21.4600        98
    21.5200       114
    21.5800       106
    21.6400        94
    21.7000        94
    21.7600       100
    21.8200        94
    21.8800        84
    21.9400        98
    22.0000        82
    22.0600        76
    22.1200        80
    22.1800       104
    22.2400        74
    22.3000        80
    22.3600        88
    22.4200        74
    22.4800        70
    22.5400        92
    22.6000        82
    22.6600        98
    22.7200        82
    22.7800        96
    22.8400        96
    22.9000        72
    22.9600        88
    23.0200        96
    23.0800        84
    23.1400       108
    23.2000        94
    23.2600       106
    23.3200        90
    23.3800       102
    23.4400        86
    23.5000       108
    23.5600        92
    23.6200        92
    23.6800        92
    23.7400        86
    23.8000       100
    23.8600       102
    23.9200        90
    23.9800       120
    24.0400        98
    24.1000        98
    24.1600        98
    24.2200       108
    24.2800       144
    24.3400       134
    24.4000       140
    24.4600       170
    24.5200       248
    24.5800       302
    24.6400       436
    24.7000       662
    24.7600       892
    24.8200      1150
    24.8800      1270
    24.9400      1042
    25.0000       718
    25.0600       462
    25.1200       304
    25.1800       262
    25.2400       212
    25.3000       194
    25.3600       128
    25.4200       128
    25.4800       124
    25.5400       108
    25.6000       110
    25.6600       100
    25.7200       102
    25.7800        96
    25.8400        98
    25.9000        86
    25.9600       102
    26.0200        90
    26.0800       104
    26.1400        90
    26.2000        74
    26.2600        86
    26.3200        66
    26.3800        90
    26.4400       100
    26.5000       106
    26.5600       102
    26.6200        84
    26.6800        82
    26.7400        72
    26.8000        80
    26.8600        72
    26.9200        82
    26.9800        70
    27.0400        78
    27.1000        64
    27.1600        54
    27.2200        66
    27.2800        80
    27.3400        82
    27.4000        80
    27.4600        66
    27.5200        70
    27.5800        64
    27.6400        70
    27.7000        64
    27.7600        80
    27.8200        50
    27.8800        74
    27.9400        76
    28.0000        46
    28.0600        72
    28.1200        70
    28.1800        70
    28.2400        70
    28.3000        96
    28.3600        96
    28.4200       100
    28.4800       128
    28.5400       110
    28.6000        84
    28.6600        70
    28.7200        84
    28.7800        72
    28.8400        48
    28.9000        66
    28.9600        64
    29.0200        72
    29.0800        62
    29.1400        76
    29.2000        80
    29.2600        58
    29.3200        84
    29.3800        60
    29.4400        64
    29.5000        68
    29.5600        76
    29.6200        52
    29.6800        64
    29.7400        48
    29.8000        84
    29.8600        68
    29.9200        56
    29.9800        62
    30.0400        72
    30.1000        68
    30.1600        68
    30.2200        42
    30.2800        52
    30.3400        48
    30.4000        66
    30.4600        56
    30.5200        72
    30.5800        74
    30.6400        80
    30.7000        70
    30.7600        86
    30.8200        84
    30.8800       126
    30.9400       112
    31.0000       160
    31.0600       234
    31.1200       310
    31.1800       382
    31.2400       424
    31.3000       352
    31.3600       268
    31.4200       208
    31.4800       122
    31.5400        80
    31.6000       100
    31.6600        64
    31.7200        52
    31.7800        58
    31.8400        50
    31.9000        46
    31.9600        52
    32.0200        70
    32.0800        52
    32.1400        50
    32.2000        60
    32.2600        52
    32.3200        56
    32.3800        42
    32.4400        68
    32.5000        58
    32.5600        46
    32.6200        62
    32.6800        60
    32.7400        48
    32.8000        46
    32.8600        50
    32.9200        64
    32.9800        62
    33.0400        42
    33.1000        52
    33.1600        62
    33.2200        54
    33.2800        48
    33.3400        64
    33.4000        68
    33.4600        76
    33.5200        90
    33.5800       102
    33.6400       106
    33.7000        92
    33.7600       106
    33.8200        76
    33.8800        88
    33.9400        74
    34.0000        68
    34.0600        56
    34.1200        64
    34.1800        78
    34.2400        78
    34.3000        92
    34.3600       132
    34.4200       174
    34.4800       232
    34.5400       282
    34.6000       360
    34.6600       364
    34.7200       262
    34.7800       204
    34.8400       152
    34.9000       166
    34.9600       202
    35.0200       300
    35.0800       430
    35.1400       586
    35.2000       626
    35.2600       630
    35.3200       516
    35.3800       322
    35.4400       190
    35.5000       154
    35.5600       130
    35.6200       118
    35.6800        86
    35.7400        92
    35.8000        88
    35.8600        94
    35.9200        92
    35.9800        74
    36.0400        92
    36.1000        70
    36.1600       104
    36.2200        92
    36.2800       104
    36.3400       116
    36.4000       158
    36.4600       188
    36.5200       282
    36.5800       356
    36.6400       488
    36.7000       534
    36.7600       528
    36.8200       428
    36.8800       322
    36.9400       198
    37.0000       152
    37.0600       128
    37.1200       106
    37.1800       102
    37.2400        74
    37.3000        94
    37.3600       104
    37.4200       118
    37.4800       156
    37.5400       206
    37.6000       264
    37.6600       270
    37.7200       276
    37.7800       212
    37.8400       186
    37.9000       118
    37.9600        96
    38.0200        88
    38.0800        76
    38.1400        56
    38.2000        76
    38.2600        48
    38.3200        58
    38.3800        64
    38.4400        48
    38.5000        50
    38.5600        58
    38.6200        58
    38.6800        50
    38.7400        60
    38.8000        52
    38.8600        56
    38.9200        54
    38.9800        80
    39.0400        60
    39.1000        46
    39.1600        60
    39.2200        52
    39.2800        72
    39.3400        76
    39.4000        78
    39.4600        90
    39.5200       120
    39.5800       144
    39.6400       176
    39.7000       222
    39.7600       240
    39.8200       218
    39.8800       192
    39.9400       164
    40.0000       118
    40.0600        84
    40.1200        90
    40.1800        54
    40.2400        74
    40.3000        64
    40.3600        58
    40.4200        52
    40.4800        58
    40.5400        54
    40.6000        46
    40.6600        56
    40.7200        44
    40.7800        58
    40.8400        66
    40.9000        62
    40.9600        52
    41.0200        76
    41.0800        64
    41.1400        52
    41.2000        54
    41.2600        48
    41.3200        60
    41.3800        42
    41.4400        36
    41.5000        64
    41.5600        60
    41.6200        32
    41.6800        48
    41.7400        38
    41.8000        36
    41.8600        46
    41.9200        40
    41.9800        40
    42.0400        58
    42.1000        38
    42.1600        46
    42.2200        48
    42.2800        46
    42.3400        46
    42.4000        42
    42.4600        60
    42.5200        40
    42.5800        62
    42.6400        32
    42.7000        48
    42.7600        50
    42.8200        48
    42.8800        44
    42.9400        50
    43.0000        42
    43.0600        52
    43.1200        50
    43.1800        52
    43.2400        62
    43.3000        64
    43.3600        78
    43.4200        66
    43.4800        76
    43.5400        86
    43.6000        82
    43.6600       102
    43.7200        82
    43.7800        92
    43.8400        78
    43.9000        86
    43.9600        68
    44.0200        58
    44.0800        66
    44.1400        80
    44.2000       106
    44.2600       126
    44.3200       166
    44.3800       142
    44.4400       136
    44.5000       116
    44.5600       160
    44.6200       132
    44.6800       126
    44.7400       176
    44.8000       204
    44.8600       284
    44.9200       324
    44.9800       384
    45.0400       464
    45.1000       434
    45.1600       424
    45.2200       372
    45.2800       336
    45.3400       244
    45.4000       144
    45.4600       144
    45.5200       124
    45.5800        96
    45.6400        94
    45.7000        82
    45.7600        70
    45.8200        70
    45.8800        72
    45.9400        52
    46.0000        52
    46.0600        56
    46.1200        48
    46.1800        32
    46.2400        44
    46.3000        56
    46.3600        40
    46.4200        50
    46.4800        46
    46.5400        50
    46.6000        56
    46.6600        48
    46.7200        38
    46.7800        48
    46.8400        50
    46.9000        52
    46.9600        54
    47.0200        42
    47.0800        48
    47.1400        40
    47.2000        40
    47.2600        54
    47.3200        50
    47.3800        46
    47.4400        30
    47.5000        42
    47.5600        50
    47.6200        62
    47.6800        64
    47.7400        74
    47.8000        82
    47.8600        92
    47.9200       102
    47.9800       108
    48.0400       142
    48.1000       158
    48.1600       162
    48.2200       178
    48.2800       164
    48.3400       116
    48.4000        96
    48.4600        94
    48.5200        62
    48.5800        72
    48.6400        60
    48.7000        44
    48.7600        60
    48.8200        56
    48.8800        54
    48.9400        68
    49.0000        48
    49.0600        52
    49.1200        52
    49.1800        48
    49.2400        54
    49.3000        64
    49.3600        72
    49.4200        70
    49.4800        86
    49.5400        96
    49.6000       110
    49.6600       136
    49.7200       134
    49.7800       166
    49.8400       168
    49.9000       146
    49.9600       130
    50.0200       106
    50.0800        86
    50.1400        80
    50.2000        64
    50.2600        56
    50.3200        58
    50.3800        48
    50.4400        32
    50.5000        48
    50.5600        44
    50.6200        30
    50.6800        42
    50.7400        42
    50.8000        50
    50.8600        50
    50.9200        50
    50.9800        38
    51.0400        38
    51.1000        42
    51.1600        38
    51.2200        42
    51.2800        40
    51.3400        44
    51.4000        44
    51.4600        44
    51.5200        34
    51.5800        38
    51.6400        58
    51.7000        48
    51.7600        36
    51.8200        34
    51.8800        42
    51.9400        42
    52.0000        34
    52.0600        40
    52.1200        48
    52.1800        48
    52.2400        48
    52.3000        72
    52.3600        56
    52.4200        74
    52.4800        84
    52.5400        88
    52.6000        94
    52.6600        70
    52.7200        84
    52.7800        82
    52.8400        82
    52.9000        86
    52.9600        72
    53.0200        84
    53.0800       100
    53.1400        74
    53.2000        88
    53.2600        72
    53.3200        78
    53.3800        64
    53.4400        72
    53.5000        82
    53.5600        48
    53.6200        66
    53.6800        60
    53.7400        64
    53.8000        60
    53.8600        58
    53.9200        48
    53.9800        56
    54.0400        58
    54.1000        54
    54.1600        44
    54.2200        64
    54.2800        60
    54.3400        58
    54.4000        66
    54.4600        64
    54.5200        54
    54.5800        58
    54.6400        78
    54.7000        74
    54.7600        84
    54.8200       100
    54.8800        90
    54.9400        98
    55.0000        92
    55.0600        92
    55.1200        88
    55.1800        88
    55.2400        84
    55.3000        84
    55.3600        72
    55.4200        64
    55.4800        60
    55.5400        72
    55.6000        56
    55.6600        64
    55.7200        58
    55.7800        66
    55.8400        58
    55.9000        58
    55.9600        66
    56.0200        48
    56.0800        34
    56.1400        48
    56.2000        40
    56.2600        56
    56.3200        48
    56.3800        46
    56.4400        56
    56.5000        60
    56.5600        40
    56.6200        50
    56.6800        48
    56.7400        46
    56.8000        50
    56.8600        66
    56.9200        52
    56.9800        54
    57.0400        52
    57.1000        46
    57.1600        52
    57.2200        36
    57.2800        56
    57.3400        50
    57.4000        36
    57.4600        58
    57.5200        46
    57.5800        58
    57.6400        54
    57.7000        62
    57.7600        64
    57.8200        52
    57.8800        84
    57.9400        60
    58.0000        88
    58.0600        70
    58.1200       116
    58.1800       116
    58.2400       100
    58.3000       152
    58.3600       140
    58.4200       180
    58.4800       212
    58.5400       242
    58.6000       262
    58.6600       280
    58.7200       332
    58.7800       264
    58.8400       262
    58.9000       242
    58.9600       190
    59.0200       188
    59.0800       138
    59.1400       138
    59.2000       110
    59.2600        88
    59.3200        86
    59.3800        76
    59.4400        74
    59.5000        74
    59.5600        80
    59.6200        76
    59.6800        80
    59.7400        76
    59.8000       100
    59.8600       126
    59.9200       158
    59.9800       266
    60.0400       412
    60.1000       446
    60.1600       458
    60.2200       386
    60.2800       316
    60.3400       240
    60.4000       180
    60.4600       146
    60.5200       104
    60.5800       106
    60.6400        76
    60.7000        92
    60.7600        68
    60.8200        72
    60.8800        70
    60.9400        52
    61.0000        72
    61.0600        56
    61.1200        60
    61.1800        66
    61.2400        60
    61.3000        82
    61.3600        72
    61.4200        86
    61.4800       122
    61.5400       122
    61.6000       158
    61.6600       162
    61.7200       148
    61.7800       150
    61.8400       114
    61.9000        80
    61.9600        56
    62.0200        52
    62.0800        62
    62.1400        52
    62.2000        48
    62.2600        54
    62.3200        34
    62.3800        44
    62.4400        52
    62.5000        34
    62.5600        40
    62.6200        40
    62.6800        36
    62.7400        62
    62.8000        42
    62.8600        48
    62.9200        44
    62.9800        54
    63.0400        54
    63.1000        44
    63.1600        38
    63.2200        56
    63.2800        54
    63.3400        48
    63.4000        58
    63.4600        78
    63.5200        86
    63.5800        54
    63.6400        74
    63.7000        58
    63.7600        50
    63.8200        42
    63.8800        50
    63.9400        52
    64.0000        50
    64.0600        30
    64.1200        48
    64.1800        28
    64.2400        48
    64.3000        54
    64.3600        48
    64.4200        42
    64.4800        44
    64.5400        56
    64.6000        54
    64.6600        42
    64.7200        42
    64.7800        46
    64.8400        50
    64.9000        54
    64.9600        66
    65.0000        60