File: sl1/usgs/library06/DESCRIPT/new_xrd_results_to_be_added/Rhonda_Driscoll_xrd_runs/GDS157-Clino-or-Ripido.txt
/////////////////////////////////////////////////////////////////////////////////
/// Profile Data Ascii Dump (XRD)                                             ///
/////////////////////////////////////////////////////////////////////////////////

  Group     : Swayze
  Data      : GDS157
  File Name : GDS157.RAW

# Profile Datafile
          comment             = Clinoptilolite/Ripidolite
          date & time         = 08-04-28 07:18:27

# Measurement Condition
    X-ray tube
          target              = Cu
          voltage             = 40.0 (kV)
          current             = 30.0 (mA)
    Slits
          divergence slit     = 2.00000 (deg)
          scatter slit        = 2.00000 (deg)
          receiving slit      = 0.15000 (mm)
    Scanning
          drive axis          = Theta-2Theta
          scan range          =    4.000 -   65.000
          scan mode           = Continuous Scan
          scan speed          =   2.0000 (deg/min)
          sampling pitch      =   0.0200 (deg)
          preset time         =   0.60 (sec)

# Data      [ Total No. = 3051 ]
  <2Theta>   <   I   >
     4.0000       172
     4.0600       198
     4.1200       194
     4.1800       184
     4.2400       176
     4.3000       168
     4.3600       194
     4.4200       154
     4.4800       178
     4.5400       168
     4.6000       124
     4.6600       158
     4.7200       166
     4.7800       160
     4.8400       144
     4.9000       168
     4.9600       172
     5.0200       170
     5.0800       152
     5.1400       172
     5.2000       134
     5.2600       176
     5.3200       168
     5.3800       156
     5.4400       184
     5.5000       162
     5.5600       164
     5.6200       194
     5.6800       180
     5.7400       220
     5.8000       198
     5.8600       230
     5.9200       252
     5.9800       266
     6.0400       372
     6.1000       504
     6.1600       562
     6.2200       334
     6.2800       186
     6.3400       170
     6.4000       138
     6.4600       150
     6.5200       138
     6.5800       126
     6.6400       136
     6.7000       136
     6.7600       126
     6.8200       134
     6.8800       126
     6.9400       134
     7.0000       114
     7.0600       138
     7.1200       122
     7.1800       116
     7.2400       104
     7.3000       114
     7.3600       122
     7.4200       106
     7.4800       124
     7.5400       112
     7.6000       114
     7.6600        84
     7.7200       122
     7.7800       122
     7.8400       126
     7.9000       102
     7.9600       126
     8.0200       118
     8.0800       116
     8.1400       132
     8.2000       118
     8.2600       118
     8.3200       118
     8.3800       100
     8.4400       140
     8.5000       120
     8.5600        96
     8.6200       122
     8.6800       118
     8.7400       126
     8.8000       114
     8.8600       100
     8.9200       130
     8.9800        98
     9.0400        94
     9.1000       130
     9.1600        94
     9.2200        94
     9.2800       112
     9.3400       114
     9.4000       112
     9.4600       100
     9.5200       120
     9.5800       120
     9.6400       100
     9.7000       104
     9.7600       114
     9.8200       116
     9.8800       134
     9.9400       114
    10.0000       112
    10.0600       110
    10.1200       108
    10.1800       106
    10.2400       100
    10.3000        86
    10.3600       100
    10.4200       102
    10.4800        78
    10.5400        88
    10.6000       120
    10.6600        90
    10.7200        78
    10.7800        94
    10.8400        84
    10.9000        88
    10.9600        80
    11.0200        86
    11.0800        90
    11.1400        88
    11.2000       100
    11.2600        86
    11.3200       102
    11.3800        98
    11.4400       104
    11.5000        86
    11.5600        92
    11.6200       110
    11.6800        94
    11.7400        98
    11.8000       134
    11.8600       126
    11.9200       178
    11.9800       176
    12.0400       230
    12.1000       290
    12.1600       406
    12.2200       556
    12.2800       908
    12.3400      1588
    12.4000      1860
    12.4600       988
    12.5200       420
    12.5800       184
    12.6400       122
    12.7000       100
    12.7600       102
    12.8200        86
    12.8800        62
    12.9400        68
    13.0000        84
    13.0600        90
    13.1200        76
    13.1800        78
    13.2400        66
    13.3000        70
    13.3600        82
    13.4200        64
    13.4800        72
    13.5400        70
    13.6000        62
    13.6600        62
    13.7200        74
    13.7800        66
    13.8400        70
    13.9000        72
    13.9600        70
    14.0200        70
    14.0800        60
    14.1400        58
    14.2000        68
    14.2600        64
    14.3200        56
    14.3800        58
    14.4400        56
    14.5000        58
    14.5600        72
    14.6200        64
    14.6800        54
    14.7400        70
    14.8000        76
    14.8600        58
    14.9200        66
    14.9800        70
    15.0400        70
    15.1000        58
    15.1600        70
    15.2200        72
    15.2800        60
    15.3400        58
    15.4000        60
    15.4600        56
    15.5200        68
    15.5800        68
    15.6400        60
    15.7000        72
    15.7600        70
    15.8200        44
    15.8800        54
    15.9400        66
    16.0000        48
    16.0600        48
    16.1200        56
    16.1800        66
    16.2400        60
    16.3000        50
    16.3600        64
    16.4200        72
    16.4800        64
    16.5400        62
    16.6000        74
    16.6600        44
    16.7200        60
    16.7800        72
    16.8400        64
    16.9000        64
    16.9600        50
    17.0200        48
    17.0800        62
    17.1400        66
    17.2000        60
    17.2600        70
    17.3200        52
    17.3800        50
    17.4400        40
    17.5000        60
    17.5600        56
    17.6200        58
    17.6800        58
    17.7400        62
    17.8000        72
    17.8600        58
    17.9200        68
    17.9800        50
    18.0400        54
    18.1000        64
    18.1600        62
    18.2200       102
    18.2800        86
    18.3400       108
    18.4000       102
    18.4600       166
    18.5200       266
    18.5800       424
    18.6400       800
    18.7000       830
    18.7600       474
    18.8200       230
    18.8800       126
    18.9400        92
    19.0000       108
    19.0600       112
    19.1200        92
    19.1800        82
    19.2400        88
    19.3000        88
    19.3600        86
    19.4200        66
    19.4800        76
    19.5400        82
    19.6000        72
    19.6600        66
    19.7200        62
    19.7800        60
    19.8400        62
    19.9000        56
    19.9600        68
    20.0200        62
    20.0800        68
    20.1400        76
    20.2000        68
    20.2600        78
    20.3200        64
    20.3800        64
    20.4400        60
    20.5000        56
    20.5600        58
    20.6200        76
    20.6800        64
    20.7400        70
    20.8000        64
    20.8600        66
    20.9200        44
    20.9800        50
    21.0400        48
    21.1000        52
    21.1600        62
    21.2200        62
    21.2800        74
    21.3400        48
    21.4000        56
    21.4600        42
    21.5200        70
    21.5800        46
    21.6400        62
    21.7000        62
    21.7600        46
    21.8200        56
    21.8800        52
    21.9400        66
    22.0000        66
    22.0600        52
    22.1200        68
    22.1800        64
    22.2400        54
    22.3000        60
    22.3600        52
    22.4200        48
    22.4800        52
    22.5400        54
    22.6000        48
    22.6600        56
    22.7200        42
    22.7800        60
    22.8400        58
    22.9000        42
    22.9600        56
    23.0200        70
    23.0800        60
    23.1400        48
    23.2000        54
    23.2600        56
    23.3200        52
    23.3800        58
    23.4400        60
    23.5000        52
    23.5600        54
    23.6200        58
    23.6800        70
    23.7400        66
    23.8000        66
    23.8600        60
    23.9200        88
    23.9800        58
    24.0400        54
    24.1000        54
    24.1600        54
    24.2200        80
    24.2800        66
    24.3400        76
    24.4000        72
    24.4600        68
    24.5200        62
    24.5800        98
    24.6400       104
    24.7000       152
    24.7600       214
    24.8200       338
    24.8800       660
    24.9400      1364
    25.0000      2236
    25.0600      2168
    25.1200      1280
    25.1800       552
    25.2400       250
    25.3000       122
    25.3600        82
    25.4200        76
    25.4800        64
    25.5400        64
    25.6000        54
    25.6600        48
    25.7200        56
    25.7800        56
    25.8400        36
    25.9000        52
    25.9600        54
    26.0200        56
    26.0800        56
    26.1400        52
    26.2000        54
    26.2600        60
    26.3200        60
    26.3800        54
    26.4400        52
    26.5000        44
    26.5600        48
    26.6200        64
    26.6800        62
    26.7400        44
    26.8000        40
    26.8600        58
    26.9200        56
    26.9800        54
    27.0400        44
    27.1000        40
    27.1600        56
    27.2200        38
    27.2800        52
    27.3400        38
    27.4000        44
    27.4600        42
    27.5200        44
    27.5800        36
    27.6400        46
    27.7000        46
    27.7600        32
    27.8200        44
    27.8800        44
    27.9400        48
    28.0000        58
    28.0600        38
    28.1200        50
    28.1800        46
    28.2400        64
    28.3000        46
    28.3600        46
    28.4200        52
    28.4800        40
    28.5400        46
    28.6000        34
    28.6600        50
    28.7200        36
    28.7800        38
    28.8400        38
    28.9000        50
    28.9600        40
    29.0200        20
    29.0800        38
    29.1400        54
    29.2000        42
    29.2600        56
    29.3200        34
    29.3800        40
    29.4400        44
    29.5000        48
    29.5600        36
    29.6200        50
    29.6800        48
    29.7400        48
    29.8000        36
    29.8600        58
    29.9200        52
    29.9800        38
    30.0400        42
    30.1000        50
    30.1600        38
    30.2200        40
    30.2800        48
    30.3400        46
    30.4000        48
    30.4600        54
    30.5200        40
    30.5800        38
    30.6400        34
    30.7000        42
    30.7600        44
    30.8200        48
    30.8800        42
    30.9400        34
    31.0000        44
    31.0600        50
    31.1200        52
    31.1800        64
    31.2400        98
    31.3000       154
    31.3600       320
    31.4200       502
    31.4800       526
    31.5400       400
    31.6000       242
    31.6600       112
    31.7200        62
    31.7800        52
    31.8400        62
    31.9000        38
    31.9600        38
    32.0200        28
    32.0800        46
    32.1400        56
    32.2000        44
    32.2600        38
    32.3200        38
    32.3800        52
    32.4400        44
    32.5000        62
    32.5600        48
    32.6200        54
    32.6800        52
    32.7400        44
    32.8000        36
    32.8600        42
    32.9200        32
    32.9800        48
    33.0400        40
    33.1000        48
    33.1600        36
    33.2200        44
    33.2800        54
    33.3400        44
    33.4000        74
    33.4600        52
    33.5200        46
    33.5800        66
    33.6400        50
    33.7000        32
    33.7600        36
    33.8200        48
    33.8800        44
    33.9400        36
    34.0000        40
    34.0600        48
    34.1200        62
    34.1800        70
    34.2400        70
    34.3000       140
    34.3600       180
    34.4200       156
    34.4800       138
    34.5400       104
    34.6000        78
    34.6600        72
    34.7200        66
    34.7800        80
    34.8400       102
    34.9000       140
    34.9600       176
    35.0200       156
    35.0800       164
    35.1400       114
    35.2000        94
    35.2600        42
    35.3200        38
    35.3800        46
    35.4400        38
    35.5000        40
    35.5600        42
    35.6200        52
    35.6800        36
    35.7400        48
    35.8000        58
    35.8600        32
    35.9200        40
    35.9800        46
    36.0400        34
    36.1000        42
    36.1600        54
    36.2200        52
    36.2800        72
    36.3400        82
    36.4000       140
    36.4600       140
    36.5200       188
    36.5800       176
    36.6400       118
    36.7000       100
    36.7600        66
    36.8200        40
    36.8800        66
    36.9400        56
    37.0000        22
    37.0600        42
    37.1200        50
    37.1800        56
    37.2400        66
    37.3000        90
    37.3600       126
    37.4200       142
    37.4800       156
    37.5400       156
    37.6000        98
    37.6600        96
    37.7200        72
    37.7800        50
    37.8400        38
    37.9000        44
    37.9600        54
    38.0200        34
    38.0800        44
    38.1400        36
    38.2000        42
    38.2600        52
    38.3200        44
    38.3800        42
    38.4400        42
    38.5000        42
    38.5600        50
    38.6200        38
    38.6800        28
    38.7400        42
    38.8000        30
    38.8600        34
    38.9200        34
    38.9800        30
    39.0400        36
    39.1000        54
    39.1600        44
    39.2200        42
    39.2800        40
    39.3400        66
    39.4000        62
    39.4600        86
    39.5200        90
    39.5800       134
    39.6400       144
    39.7000       114
    39.7600       106
    39.8200        78
    39.8800        50
    39.9400        50
    40.0000        46
    40.0600        38
    40.1200        32
    40.1800        36
    40.2400        28
    40.3000        38
    40.3600        36
    40.4200        44
    40.4800        34
    40.5400        28
    40.6000        36
    40.6600        34
    40.7200        36
    40.7800        44
    40.8400        36
    40.9000        32
    40.9600        28
    41.0200        34
    41.0800        28
    41.1400        22
    41.2000        34
    41.2600        30
    41.3200        44
    41.3800        34
    41.4400        36
    41.5000        32
    41.5600        36
    41.6200        38
    41.6800        36
    41.7400        36
    41.8000        38
    41.8600        16
    41.9200        38
    41.9800        50
    42.0400        32
    42.1000        32
    42.1600        32
    42.2200        36
    42.2800        34
    42.3400        44
    42.4000        26
    42.4600        36
    42.5200        24
    42.5800        26
    42.6400        34
    42.7000        32
    42.7600        34
    42.8200        36
    42.8800        28
    42.9400        38
    43.0000        28
    43.0600        46
    43.1200        42
    43.1800        42
    43.2400        36
    43.3000        36
    43.3600        46
    43.4200        52
    43.4800        66
    43.5400        50
    43.6000        60
    43.6600        54
    43.7200        52
    43.7800        42
    43.8400        30
    43.9000        32
    43.9600        28
    44.0200        42
    44.0800        24
    44.1400        30
    44.2000        30
    44.2600        32
    44.3200        36
    44.3800        40
    44.4400        48
    44.5000        56
    44.5600       100
    44.6200       148
    44.6800       168
    44.7400       178
    44.8000       162
    44.8600       170
    44.9200       222
    44.9800       254
    45.0400       238
    45.1000       236
    45.1600       202
    45.2200       156
    45.2800       110
    45.3400        84
    45.4000        54
    45.4600        56
    45.5200        40
    45.5800        50
    45.6400        40
    45.7000        48
    45.7600        36
    45.8200        42
    45.8800        30
    45.9400        36
    46.0000        26
    46.0600        28
    46.1200        28
    46.1800        32
    46.2400        40
    46.3000        24
    46.3600        32
    46.4200        30
    46.4800        48
    46.5400        38
    46.6000        26
    46.6600        26
    46.7200        36
    46.7800        26
    46.8400        40
    46.9000        30
    46.9600        36
    47.0200        20
    47.0800        36
    47.1400        26
    47.2000        28
    47.2600        26
    47.3200        20
    47.3800        30
    47.4400        40
    47.5000        32
    47.5600        36
    47.6200        36
    47.6800        32
    47.7400        34
    47.8000        64
    47.8600        48
    47.9200        76
    47.9800       112
    48.0400       116
    48.1000       130
    48.1600       132
    48.2200       104
    48.2800        92
    48.3400        60
    48.4000        56
    48.4600        44
    48.5200        42
    48.5800        44
    48.6400        32
    48.7000        36
    48.7600        32
    48.8200        36
    48.8800        34
    48.9400        28
    49.0000        42
    49.0600        34
    49.1200        36
    49.1800        40
    49.2400        30
    49.3000        30
    49.3600        44
    49.4200        40
    49.4800        58
    49.5400        58
    49.6000        58
    49.6600        62
    49.7200        74
    49.7800        68
    49.8400        76
    49.9000        72
    49.9600        60
    50.0200        46
    50.0800        44
    50.1400        44
    50.2000        34
    50.2600        36
    50.3200        34
    50.3800        36
    50.4400        26
    50.5000        30
    50.5600        32
    50.6200        30
    50.6800        30
    50.7400        26
    50.8000        30
    50.8600        26
    50.9200        34
    50.9800        32
    51.0400        24
    51.1000        30
    51.1600        30
    51.2200        34
    51.2800        28
    51.3400        30
    51.4000        40
    51.4600        34
    51.5200        30
    51.5800        28
    51.6400        24
    51.7000        28
    51.7600        26
    51.8200        42
    51.8800        48
    51.9400        38
    52.0000        42
    52.0600        50
    52.1200        40
    52.1800        44
    52.2400        42
    52.3000        50
    52.3600        38
    52.4200        42
    52.4800        30
    52.5400        38
    52.6000        36
    52.6600        50
    52.7200        40
    52.7800        30
    52.8400        34
    52.9000        36
    52.9600        50
    53.0200        42
    53.0800        42
    53.1400        56
    53.2000        40
    53.2600        52
    53.3200        56
    53.3800        46
    53.4400        46
    53.5000        40
    53.5600        48
    53.6200        50
    53.6800        32
    53.7400        38
    53.8000        36
    53.8600        28
    53.9200        32
    53.9800        28
    54.0400        24
    54.1000        26
    54.1600        32
    54.2200        30
    54.2800        46
    54.3400        42
    54.4000        30
    54.4600        34
    54.5200        26
    54.5800        32
    54.6400        42
    54.7000        48
    54.7600        48
    54.8200        42
    54.8800        70
    54.9400        66
    55.0000        68
    55.0600        90
    55.1200        84
    55.1800        94
    55.2400        78
    55.3000        54
    55.3600        36
    55.4200        34
    55.4800        46
    55.5400        36
    55.6000        34
    55.6600        32
    55.7200        32
    55.7800        34
    55.8400        28
    55.9000        28
    55.9600        32
    56.0200        30
    56.0800        38
    56.1400        32
    56.2000        30
    56.2600        32
    56.3200        36
    56.3800        28
    56.4400        28
    56.5000        30
    56.5600        28
    56.6200        30
    56.6800        34
    56.7400        26
    56.8000        26
    56.8600        42
    56.9200        34
    56.9800        28
    57.0400        30
    57.1000        40
    57.1600        40
    57.2200        24
    57.2800        28
    57.3400        30
    57.4000        32
    57.4600        32
    57.5200        32
    57.5800        28
    57.6400        28
    57.7000        28
    57.7600        24
    57.8200        30
    57.8800        28
    57.9400        44
    58.0000        32
    58.0600        24
    58.1200        34
    58.1800        44
    58.2400        34
    58.3000        42
    58.3600        72
    58.4200        58
    58.4800        82
    58.5400       106
    58.6000       148
    58.6600       152
    58.7200       200
    58.7800       230
    58.8400       204
    58.9000       180
    58.9600       152
    59.0200       126
    59.0800       106
    59.1400        96
    59.2000        62
    59.2600        62
    59.3200        64
    59.3800        44
    59.4400        48
    59.5000       104
    59.5600       158
    59.6200       166
    59.6800       134
    59.7400       138
    59.8000        98
    59.8600        74
    59.9200        62
    59.9800        56
    60.0400        44
    60.1000        40
    60.1600        40
    60.2200        32
    60.2800        46
    60.3400        38
    60.4000        26
    60.4600        42
    60.5200        20
    60.5800        44
    60.6400        38
    60.7000        36
    60.7600        50
    60.8200        42
    60.8800        54
    60.9400        58
    61.0000        46
    61.0600        78
    61.1200        72
    61.1800        72
    61.2400        78
    61.3000        80
    61.3600        54
    61.4200        44
    61.4800        42
    61.5400        42
    61.6000        34
    61.6600        32
    61.7200        24
    61.7800        42
    61.8400        34
    61.9000        36
    61.9600        34
    62.0200        28
    62.0800        38
    62.1400        36
    62.2000        32
    62.2600        30
    62.3200        30
    62.3800        34
    62.4400        30
    62.5000        30
    62.5600        24
    62.6200        36
    62.6800        30
    62.7400        32
    62.8000        36
    62.8600        26
    62.9200        26
    62.9800        30
    63.0400        32
    63.1000        36
    63.1600        24
    63.2200        46
    63.2800        28
    63.3400        34
    63.4000        40
    63.4600        34
    63.5200        42
    63.5800        32
    63.6400        32
    63.7000        36
    63.7600        36
    63.8200        36
    63.8800        22
    63.9400        26
    64.0000        22
    64.0600        38
    64.1200        16
    64.1800        24
    64.2400        28
    64.3000        38
    64.3600        24
    64.4200        30
    64.4800        36
    64.5400        26
    64.6000        26
    64.6600        46
    64.7200        32
    64.7800        42
    64.8400        42
    64.9000        32
    64.9600        48
    65.0000        36