File: sl1/usgs/library06/DESCRIPT/new_xrd_results_to_be_added/Rhonda_Driscoll_xrd_runs/GDS18---Mordenite.txt
/////////////////////////////////////////////////////////////////////////////////
/// Profile Data Ascii Dump (XRD)                                             ///
/////////////////////////////////////////////////////////////////////////////////

  Group     : Swayze
  Data      : GDS18
  File Name : GDS18.RAW

# Profile Datafile
          comment             = Mordenite
          date & time         = 08-03-24 07:48:58

# Measurement Condition
    X-ray tube
          target              = Cu
          voltage             = 40.0 (kV)
          current             = 30.0 (mA)
    Slits
          divergence slit     = 2.00000 (deg)
          scatter slit        = 2.00000 (deg)
          receiving slit      = 0.15000 (mm)
    Scanning
          drive axis          = Theta-2Theta
          scan range          =    4.000 -   65.000
          scan mode           = Continuous Scan
          scan speed          =   2.0000 (deg/min)
          sampling pitch      =   0.0200 (deg)
          preset time         =   0.60 (sec)

# Data      [ Total No. = 3051 ]
  <2Theta>   <   I   >
     4.0000       180
     4.0600       160
     4.1200       168
     4.1800       166
     4.2400       184
     4.3000       178
     4.3600       174
     4.4200       154
     4.4800       160
     4.5400       158
     4.6000       178
     4.6600       176
     4.7200       164
     4.7800       164
     4.8400       170
     4.9000       168
     4.9600       162
     5.0200       132
     5.0800       196
     5.1400       158
     5.2000       160
     5.2600       176
     5.3200       176
     5.3800       152
     5.4400       172
     5.5000       182
     5.5600       174
     5.6200       134
     5.6800       166
     5.7400       172
     5.8000       192
     5.8600       198
     5.9200       180
     5.9800       200
     6.0400       182
     6.1000       214
     6.1600       220
     6.2200       268
     6.2800       304
     6.3400       372
     6.4000       576
     6.4600       436
     6.5200       208
     6.5800       146
     6.6400       142
     6.7000       158
     6.7600       152
     6.8200       152
     6.8800       130
     6.9400       122
     7.0000       130
     7.0600       122
     7.1200       132
     7.1800       114
     7.2400       114
     7.3000       118
     7.3600       120
     7.4200       138
     7.4800       114
     7.5400       114
     7.6000       102
     7.6600       118
     7.7200       110
     7.7800       116
     7.8400       118
     7.9000       132
     7.9600       128
     8.0200       104
     8.0800       108
     8.1400       144
     8.2000       126
     8.2600       168
     8.3200       130
     8.3800       130
     8.4400       134
     8.5000       202
     8.5600       212
     8.6200       146
     8.6800       128
     8.7400       128
     8.8000       134
     8.8600       126
     8.9200       146
     8.9800       116
     9.0400       142
     9.1000       142
     9.1600       154
     9.2200       164
     9.2800       168
     9.3400       202
     9.4000       282
     9.4600       330
     9.5200       368
     9.5800       564
     9.6400      1042
     9.7000      1078
     9.7600       380
     9.8200       168
     9.8800       134
     9.9400       132
    10.0000       108
    10.0600       130
    10.1200       120
    10.1800        88
    10.2400       120
    10.3000       106
    10.3600        96
    10.4200       108
    10.4800        90
    10.5400       100
    10.6000       108
    10.6600        82
    10.7200       100
    10.7800       100
    10.8400       102
    10.9000        90
    10.9600        98
    11.0200       112
    11.0800        90
    11.1400        94
    11.2000        90
    11.2600        78
    11.3200       100
    11.3800        78
    11.4400        84
    11.5000       106
    11.5600        92
    11.6200        82
    11.6800        86
    11.7400       104
    11.8000        96
    11.8600        80
    11.9200        86
    11.9800        88
    12.0400        84
    12.1000        86
    12.1600       106
    12.2200        72
    12.2800        94
    12.3400        86
    12.4000        84
    12.4600        82
    12.5200        86
    12.5800        94
    12.6400       108
    12.7000       104
    12.7600       100
    12.8200       132
    12.8800       126
    12.9400       150
    13.0000       174
    13.0600       132
    13.1200       146
    13.1800       166
    13.2400       218
    13.3000       268
    13.3600       248
    13.4200       190
    13.4800       154
    13.5400       152
    13.6000       210
    13.6600       264
    13.7200       476
    13.7800       512
    13.8400       284
    13.9000       128
    13.9600        82
    14.0200        88
    14.0800        94
    14.1400        82
    14.2000        86
    14.2600        80
    14.3200        70
    14.3800       104
    14.4400       110
    14.5000       108
    14.5600       116
    14.6200       104
    14.6800        92
    14.7400        68
    14.8000       104
    14.8600       102
    14.9200       114
    14.9800       138
    15.0400       176
    15.1000       254
    15.1600       366
    15.2200       448
    15.2800       194
    15.3400       124
    15.4000        84
    15.4600        64
    15.5200        72
    15.5800        70
    15.6400        58
    15.7000        72
    15.7600        70
    15.8200        62
    15.8800        72
    15.9400        78
    16.0000        62
    16.0600        70
    16.1200        68
    16.1800        76
    16.2400        70
    16.3000        70
    16.3600        70
    16.4200        56
    16.4800        66
    16.5400        74
    16.6000        76
    16.6600        44
    16.7200        70
    16.7800        62
    16.8400        62
    16.9000        54
    16.9600        60
    17.0200        72
    17.0800        70
    17.1400        62
    17.2000        76
    17.2600        66
    17.3200        68
    17.3800        74
    17.4400        82
    17.5000       106
    17.5600        78
    17.6200        80
    17.6800        60
    17.7400        68
    17.8000        70
    17.8600        58
    17.9200        72
    17.9800        76
    18.0400        98
    18.1000        98
    18.1600        86
    18.2200        70
    18.2800        56
    18.3400        76
    18.4000        54
    18.4600        66
    18.5200        62
    18.5800        70
    18.6400        76
    18.7000        70
    18.7600        92
    18.8200        70
    18.8800        76
    18.9400        62
    19.0000        92
    19.0600        96
    19.1200       100
    19.1800       166
    19.2400       186
    19.3000       196
    19.3600       350
    19.4200       558
    19.4800       848
    19.5400       916
    19.6000       562
    19.6600       236
    19.7200       144
    19.7800       112
    19.8400       118
    19.9000       102
    19.9600        76
    20.0200        76
    20.0800        64
    20.1400        60
    20.2000        84
    20.2600        64
    20.3200        72
    20.3800        74
    20.4400        70
    20.5000        88
    20.5600        80
    20.6200       100
    20.6800        84
    20.7400       104
    20.8000       104
    20.8600        88
    20.9200        78
    20.9800        86
    21.0400        84
    21.1000        88
    21.1600       102
    21.2200       134
    21.2800       226
    21.3400       280
    21.4000       238
    21.4600       120
    21.5200        98
    21.5800       102
    21.6400        94
    21.7000       124
    21.7600       142
    21.8200       212
    21.8800       280
    21.9400       410
    22.0000       778
    22.0600      1704
    22.1200      2924
    22.1800      2790
    22.2400      1226
    22.3000       330
    22.3600       152
    22.4200       118
    22.4800        84
    22.5400        78
    22.6000        88
    22.6600       100
    22.7200        96
    22.7800       100
    22.8400       112
    22.9000       152
    22.9600       158
    23.0200       210
    23.0800       198
    23.1400       190
    23.2000       106
    23.2600       104
    23.3200       106
    23.3800       122
    23.4400       146
    23.5000       124
    23.5600       138
    23.6200        96
    23.6800        86
    23.7400        62
    23.8000        78
    23.8600        74
    23.9200        72
    23.9800        72
    24.0400        62
    24.1000        72
    24.1600        74
    24.2200        64
    24.2800       100
    24.3400        98
    24.4000       112
    24.4600        90
    24.5200        98
    24.5800        94
    24.6400        88
    24.7000        82
    24.7600        78
    24.8200       118
    24.8800       130
    24.9400       122
    25.0000       138
    25.0600       148
    25.1200       156
    25.1800       120
    25.2400       142
    25.3000       232
    25.3600       382
    25.4200       576
    25.4800       814
    25.5400       670
    25.6000       350
    25.6600       182
    25.7200       144
    25.7800       156
    25.8400       236
    25.9000       328
    25.9600       614
    26.0200       874
    26.0800      1148
    26.1400      1748
    26.2000      1812
    26.2600      1164
    26.3200       578
    26.3800       342
    26.4400       274
    26.5000       280
    26.5600       216
    26.6200       142
    26.6800       110
    26.7400       110
    26.8000       136
    26.8600       140
    26.9200       138
    26.9800       132
    27.0400       138
    27.1000       130
    27.1600       150
    27.2200       184
    27.2800       238
    27.3400       300
    27.4000       410
    27.4600       528
    27.5200       656
    27.5800       774
    27.6400       822
    27.7000       934
    27.7600      1018
    27.8200       936
    27.8800       510
    27.9400       272
    28.0000       146
    28.0600       126
    28.1200       138
    28.1800       144
    28.2400       108
    28.3000        86
    28.3600       104
    28.4200       102
    28.4800        98
    28.5400       120
    28.6000       138
    28.6600       146
    28.7200       122
    28.7800       108
    28.8400        86
    28.9000        88
    28.9600        72
    29.0200        82
    29.0800       100
    29.1400        98
    29.2000        84
    29.2600        94
    29.3200        82
    29.3800        62
    29.4400        90
    29.5000        78
    29.5600        76
    29.6200        90
    29.6800        94
    29.7400        76
    29.8000        74
    29.8600        76
    29.9200        80
    29.9800        72
    30.0400        74
    30.1000       100
    30.1600       124
    30.2200       144
    30.2800       154
    30.3400       124
    30.4000       116
    30.4600        96
    30.5200       118
    30.5800       150
    30.6400       216
    30.7000       288
    30.7600       380
    30.8200       338
    30.8800       180
    30.9400       134
    31.0000        58
    31.0600        72
    31.1200        78
    31.1800        76
    31.2400        74
    31.3000        92
    31.3600        72
    31.4200        60
    31.4800        76
    31.5400        58
    31.6000        62
    31.6600        68
    31.7200        66
    31.7800        58
    31.8400        72
    31.9000        48
    31.9600        54
    32.0200        50
    32.0800        64
    32.1400        62
    32.2000        82
    32.2600        72
    32.3200        60
    32.3800        76
    32.4400        56
    32.5000        84
    32.5600        96
    32.6200        96
    32.6800       100
    32.7400        96
    32.8000        92
    32.8600       124
    32.9200       126
    32.9800       116
    33.0400       154
    33.1000       148
    33.1600       144
    33.2200       104
    33.2800        82
    33.3400        76
    33.4000        58
    33.4600        66
    33.5200        54
    33.5800        66
    33.6400        72
    33.7000        68
    33.7600        72
    33.8200        80
    33.8800        94
    33.9400       122
    34.0000       106
    34.0600        94
    34.1200        70
    34.1800        62
    34.2400        64
    34.3000        66
    34.3600        70
    34.4200        84
    34.4800        78
    34.5400        92
    34.6000        90
    34.6600        74
    34.7200       126
    34.7800       134
    34.8400       234
    34.9000       374
    34.9600       404
    35.0200       308
    35.0800       172
    35.1400       124
    35.2000        90
    35.2600       122
    35.3200        98
    35.3800       132
    35.4400       198
    35.5000       238
    35.5600       262
    35.6200       172
    35.6800       122
    35.7400        72
    35.8000        78
    35.8600        72
    35.9200        62
    35.9800        62
    36.0400        78
    36.1000        60
    36.1600       100
    36.2200        88
    36.2800       122
    36.3400       148
    36.4000       154
    36.4600       152
    36.5200        98
    36.5800       108
    36.6400       104
    36.7000        94
    36.7600       102
    36.8200       110
    36.8800       110
    36.9400        86
    37.0000        78
    37.0600        86
    37.1200        70
    37.1800        72
    37.2400        52
    37.3000        36
    37.3600        62
    37.4200        48
    37.4800        40
    37.5400        60
    37.6000        58
    37.6600        58
    37.7200        52
    37.7800        50
    37.8400        48
    37.9000        42
    37.9600        42
    38.0200        66
    38.0800        74
    38.1400        48
    38.2000        52
    38.2600        58
    38.3200        48
    38.3800        62
    38.4400        54
    38.5000        56
    38.5600        54
    38.6200        56
    38.6800        58
    38.7400        66
    38.8000        64
    38.8600        60
    38.9200        56
    38.9800        70
    39.0400        76
    39.1000        66
    39.1600        66
    39.2200        68
    39.2800        86
    39.3400        98
    39.4000       102
    39.4600        96
    39.5200       100
    39.5800       118
    39.6400        98
    39.7000        82
    39.7600        60
    39.8200        72
    39.8800        68
    39.9400        60
    40.0000        60
    40.0600        76
    40.1200        70
    40.1800        84
    40.2400       104
    40.3000       132
    40.3600       188
    40.4200       172
    40.4800       150
    40.5400       106
    40.6000        74
    40.6600        72
    40.7200        66
    40.7800        62
    40.8400        68
    40.9000        58
    40.9600        60
    41.0200        74
    41.0800        62
    41.1400        48
    41.2000        64
    41.2600        66
    41.3200        60
    41.3800        56
    41.4400        78
    41.5000        78
    41.5600        88
    41.6200        94
    41.6800        86
    41.7400       102
    41.8000        92
    41.8600        82
    41.9200        70
    41.9800        68
    42.0400        74
    42.1000        66
    42.1600        72
    42.2200        72
    42.2800        90
    42.3400       108
    42.4000        88
    42.4600        82
    42.5200        70
    42.5800        68
    42.6400        74
    42.7000        68
    42.7600        64
    42.8200        52
    42.8800        52
    42.9400        50
    43.0000        56
    43.0600        64
    43.1200        46
    43.1800        60
    43.2400        62
    43.3000        48
    43.3600        62
    43.4200        58
    43.4800        58
    43.5400        52
    43.6000        44
    43.6600        70
    43.7200        70
    43.7800        66
    43.8400        68
    43.9000       104
    43.9600       118
    44.0200       228
    44.0800       372
    44.1400       368
    44.2000       314
    44.2600       236
    44.3200       126
    44.3800       106
    44.4400       100
    44.5000        88
    44.5600        86
    44.6200        70
    44.6800        78
    44.7400        98
    44.8000        98
    44.8600        88
    44.9200       106
    44.9800        70
    45.0400        68
    45.1000        82
    45.1600        94
    45.2200       102
    45.2800       120
    45.3400       114
    45.4000       128
    45.4600        90
    45.5200        86
    45.5800        86
    45.6400        74
    45.7000        60
    45.7600        60
    45.8200        74
    45.8800        54
    45.9400        64
    46.0000        58
    46.0600        66
    46.1200        54
    46.1800        92
    46.2400       112
    46.3000       184
    46.3600       232
    46.4200       258
    46.4800       218
    46.5400       216
    46.6000       146
    46.6600        92
    46.7200        94
    46.7800       100
    46.8400       106
    46.9000       100
    46.9600        94
    47.0200       112
    47.0800        94
    47.1400        90
    47.2000        98
    47.2600        96
    47.3200       122
    47.3800       110
    47.4400        66
    47.5000        64
    47.5600        40
    47.6200        48
    47.6800        44
    47.7400        52
    47.8000        64
    47.8600        72
    47.9200        76
    47.9800        88
    48.0400        84
    48.1000        90
    48.1600        94
    48.2200       124
    48.2800       112
    48.3400       102
    48.4000        84
    48.4600        66
    48.5200        70
    48.5800        74
    48.6400       108
    48.7000        82
    48.7600        78
    48.8200        78
    48.8800        70
    48.9400        56
    49.0000        90
    49.0600        88
    49.1200       104
    49.1800        86
    49.2400        70
    49.3000        68
    49.3600        54
    49.4200        46
    49.4800        46
    49.5400        38
    49.6000        52
    49.6600        48
    49.7200        54
    49.7800        58
    49.8400        68
    49.9000        58
    49.9600        72
    50.0200        80
    50.0800        80
    50.1400       108
    50.2000       132
    50.2600       248
    50.3200       238
    50.3800       170
    50.4400       154
    50.5000       110
    50.5600        80
    50.6200        94
    50.6800        92
    50.7400       102
    50.8000       104
    50.8600        92
    50.9200        70
    50.9800        64
    51.0400        66
    51.1000        56
    51.1600        68
    51.2200        52
    51.2800        56
    51.3400        52
    51.4000        52
    51.4600        46
    51.5200        48
    51.5800        44
    51.6400        54
    51.7000        50
    51.7600        52
    51.8200        68
    51.8800        54
    51.9400        44
    52.0000        52
    52.0600        52
    52.1200        36
    52.1800        34
    52.2400        56
    52.3000        38
    52.3600        42
    52.4200        46
    52.4800        58
    52.5400        54
    52.6000        66
    52.6600        46
    52.7200        54
    52.7800        54
    52.8400        40
    52.9000        52
    52.9600        66
    53.0200        80
    53.0800        82
    53.1400        78
    53.2000        80
    53.2600       102
    53.3200        70
    53.3800        46
    53.4400        70
    53.5000        52
    53.5600        72
    53.6200        70
    53.6800        68
    53.7400        64
    53.8000        92
    53.8600        78
    53.9200       110
    53.9800       114
    54.0400       116
    54.1000        92
    54.1600        74
    54.2200        74
    54.2800        66
    54.3400        54
    54.4000        62
    54.4600        66
    54.5200        52
    54.5800        72
    54.6400        80
    54.7000        74
    54.7600        74
    54.8200        92
    54.8800        68
    54.9400        88
    55.0000       136
    55.0600       118
    55.1200       152
    55.1800       120
    55.2400       110
    55.3000        94
    55.3600        78
    55.4200        58
    55.4800        64
    55.5400        86
    55.6000        50
    55.6600        52
    55.7200        62
    55.7800        62
    55.8400        66
    55.9000        50
    55.9600        58
    56.0200        56
    56.0800        46
    56.1400        60
    56.2000        44
    56.2600        46
    56.3200        44
    56.3800        60
    56.4400        54
    56.5000        54
    56.5600        62
    56.6200        70
    56.6800        58
    56.7400        54
    56.8000        54
    56.8600        58
    56.9200        68
    56.9800        56
    57.0400        46
    57.1000        50
    57.1600        38
    57.2200        60
    57.2800        58
    57.3400        76
    57.4000        76
    57.4600        70
    57.5200        90
    57.5800        94
    57.6400        70
    57.7000        90
    57.7600        58
    57.8200        54
    57.8800        60
    57.9400        48
    58.0000        38
    58.0600        44
    58.1200        52
    58.1800        32
    58.2400        54
    58.3000        54
    58.3600        56
    58.4200        38
    58.4800        46
    58.5400        44
    58.6000        52
    58.6600        50
    58.7200        44
    58.7800        54
    58.8400        62
    58.9000        42
    58.9600        56
    59.0200        42
    59.0800        38
    59.1400        56
    59.2000        60
    59.2600        60
    59.3200        58
    59.3800        56
    59.4400        62
    59.5000        72
    59.5600        78
    59.6200        98
    59.6800       108
    59.7400       126
    59.8000       112
    59.8600        94
    59.9200        78
    59.9800        60
    60.0400        68
    60.1000        54
    60.1600        50
    60.2200        54
    60.2800        64
    60.3400        76
    60.4000       104
    60.4600       122
    60.5200       156
    60.5800       164
    60.6400       212
    60.7000       218
    60.7600       160
    60.8200       152
    60.8800       136
    60.9400        68
    61.0000        62
    61.0600        50
    61.1200        58
    61.1800        50
    61.2400        56
    61.3000        52
    61.3600        66
    61.4200        50
    61.4800        52
    61.5400        62
    61.6000        44
    61.6600        62
    61.7200        54
    61.7800        52
    61.8400        56
    61.9000        62
    61.9600        44
    62.0200        56
    62.0800        52
    62.1400        42
    62.2000        54
    62.2600        44
    62.3200        48
    62.3800        70
    62.4400        58
    62.5000        68
    62.5600        70
    62.6200        80
    62.6800        72
    62.7400        88
    62.8000        88
    62.8600       106
    62.9200        94
    62.9800        76
    63.0400        74
    63.1000        56
    63.1600        54
    63.2200        52
    63.2800        36
    63.3400        60
    63.4000        46
    63.4600        46
    63.5200        58
    63.5800        42
    63.6400        48
    63.7000        52
    63.7600        68
    63.8200        74
    63.8800        58
    63.9400        66
    64.0000        74
    64.0600        72
    64.1200       114
    64.1800       138
    64.2400       152
    64.3000       158
    64.3600       170
    64.4200       234
    64.4800       168
    64.5400       128
    64.6000       114
    64.6600        90
    64.7200        66
    64.7800        64
    64.8400        48
    64.9000        62
    64.9600        56
    65.0000        54