File: sl1/usgs/library06/DESCRIPT/new_xrd_results_to_be_added/Rhonda_Driscoll_xrd_runs/GDS155-Clinochlore,ferrous.txt
/////////////////////////////////////////////////////////////////////////////////
/// Profile Data Ascii Dump (XRD)                                             ///
/////////////////////////////////////////////////////////////////////////////////

  Group     : Swayze
  Data      : GDS155
  File Name : GDS155.RAW

# Profile Datafile
          comment             = Clinochlore-ferrous
          date & time         = 08-04-28 08:51:18

# Measurement Condition
    X-ray tube
          target              = Cu
          voltage             = 40.0 (kV)
          current             = 30.0 (mA)
    Slits
          divergence slit     = 2.00000 (deg)
          scatter slit        = 2.00000 (deg)
          receiving slit      = 0.15000 (mm)
    Scanning
          drive axis          = Theta-2Theta
          scan range          =    4.000 -   65.000
          scan mode           = Continuous Scan
          scan speed          =   2.0000 (deg/min)
          sampling pitch      =   0.0200 (deg)
          preset time         =   0.60 (sec)

# Data      [ Total No. = 3051 ]
  <2Theta>   <   I   >
     4.0000       174
     4.0600       164
     4.1200       166
     4.1800       172
     4.2400       160
     4.3000       180
     4.3600       154
     4.4200       182
     4.4800       170
     4.5400       154
     4.6000       180
     4.6600       146
     4.7200       192
     4.7800       172
     4.8400       154
     4.9000       140
     4.9600       160
     5.0200       134
     5.0800       164
     5.1400       140
     5.2000       166
     5.2600       164
     5.3200       156
     5.3800       168
     5.4400       162
     5.5000       174
     5.5600       158
     5.6200       176
     5.6800       164
     5.7400       172
     5.8000       166
     5.8600       202
     5.9200       228
     5.9800       288
     6.0400       316
     6.1000       414
     6.1600       606
     6.2200       616
     6.2800       360
     6.3400       198
     6.4000       150
     6.4600       152
     6.5200       138
     6.5800       142
     6.6400       128
     6.7000       144
     6.7600       132
     6.8200       106
     6.8800       120
     6.9400       126
     7.0000       104
     7.0600       134
     7.1200       122
     7.1800       110
     7.2400       106
     7.3000        86
     7.3600       114
     7.4200       146
     7.4800       106
     7.5400        98
     7.6000       106
     7.6600       108
     7.7200       104
     7.7800       100
     7.8400       112
     7.9000        98
     7.9600       114
     8.0200       106
     8.0800       108
     8.1400       114
     8.2000       128
     8.2600       102
     8.3200       116
     8.3800       120
     8.4400       100
     8.5000       120
     8.5600       136
     8.6200       102
     8.6800       106
     8.7400       124
     8.8000       112
     8.8600       108
     8.9200       100
     8.9800       112
     9.0400       110
     9.1000       108
     9.1600       102
     9.2200       100
     9.2800       122
     9.3400       124
     9.4000       102
     9.4600        94
     9.5200       120
     9.5800       112
     9.6400        96
     9.7000        90
     9.7600        92
     9.8200       104
     9.8800       118
     9.9400       102
    10.0000       116
    10.0600       104
    10.1200       112
    10.1800        92
    10.2400        88
    10.3000       128
    10.3600        92
    10.4200       124
    10.4800        84
    10.5400        96
    10.6000        86
    10.6600        88
    10.7200        98
    10.7800       110
    10.8400        84
    10.9000        94
    10.9600        94
    11.0200       114
    11.0800        76
    11.1400       104
    11.2000       112
    11.2600        94
    11.3200        94
    11.3800        84
    11.4400        88
    11.5000        92
    11.5600        94
    11.6200        92
    11.6800       108
    11.7400       106
    11.8000       126
    11.8600       138
    11.9200       142
    11.9800       186
    12.0400       240
    12.1000       278
    12.1600       380
    12.2200       584
    12.2800       920
    12.3400      1528
    12.4000      2360
    12.4600      2844
    12.5200      1800
    12.5800       662
    12.6400       302
    12.7000       160
    12.7600       116
    12.8200       100
    12.8800       100
    12.9400        78
    13.0000        80
    13.0600        76
    13.1200        76
    13.1800        72
    13.2400        74
    13.3000        64
    13.3600        64
    13.4200        66
    13.4800        72
    13.5400        70
    13.6000        72
    13.6600        74
    13.7200        78
    13.7800        82
    13.8400        64
    13.9000        60
    13.9600        62
    14.0200        76
    14.0800        60
    14.1400        68
    14.2000        54
    14.2600        62
    14.3200        62
    14.3800        52
    14.4400        82
    14.5000        62
    14.5600        60
    14.6200        62
    14.6800        64
    14.7400        48
    14.8000        58
    14.8600        74
    14.9200        58
    14.9800        66
    15.0400        72
    15.1000        80
    15.1600        62
    15.2200        54
    15.2800        70
    15.3400        66
    15.4000        52
    15.4600        54
    15.5200        50
    15.5800        60
    15.6400        52
    15.7000        46
    15.7600        54
    15.8200        60
    15.8800        46
    15.9400        42
    16.0000        54
    16.0600        56
    16.1200        58
    16.1800        52
    16.2400        54
    16.3000        58
    16.3600        56
    16.4200        50
    16.4800        64
    16.5400        72
    16.6000        56
    16.6600        50
    16.7200        56
    16.7800        54
    16.8400        62
    16.9000        62
    16.9600        56
    17.0200        52
    17.0800        46
    17.1400        68
    17.2000        52
    17.2600        64
    17.3200        54
    17.3800        58
    17.4400        44
    17.5000        56
    17.5600        48
    17.6200        60
    17.6800        46
    17.7400        56
    17.8000        58
    17.8600        54
    17.9200        56
    17.9800        54
    18.0400        52
    18.1000        58
    18.1600        82
    18.2200        66
    18.2800        62
    18.3400        90
    18.4000       124
    18.4600       194
    18.5200       274
    18.5800       404
    18.6400       794
    18.7000      1146
    18.7600      1410
    18.8200       880
    18.8800       394
    18.9400       182
    19.0000        84
    19.0600        96
    19.1200        78
    19.1800        68
    19.2400        84
    19.3000        60
    19.3600        66
    19.4200        54
    19.4800        62
    19.5400        58
    19.6000        58
    19.6600        52
    19.7200        62
    19.7800        46
    19.8400        60
    19.9000        44
    19.9600        46
    20.0200        70
    20.0800        62
    20.1400        54
    20.2000        52
    20.2600        46
    20.3200        48
    20.3800        50
    20.4400        54
    20.5000        46
    20.5600        46
    20.6200        62
    20.6800        46
    20.7400        44
    20.8000        42
    20.8600        58
    20.9200        52
    20.9800        56
    21.0400        50
    21.1000        48
    21.1600        44
    21.2200        54
    21.2800        48
    21.3400        48
    21.4000        40
    21.4600        42
    21.5200        58
    21.5800        50
    21.6400        42
    21.7000        56
    21.7600        50
    21.8200        50
    21.8800        70
    21.9400        66
    22.0000        48
    22.0600        48
    22.1200        36
    22.1800        50
    22.2400        40
    22.3000        50
    22.3600        46
    22.4200        48
    22.4800        58
    22.5400        50
    22.6000        62
    22.6600        58
    22.7200        54
    22.7800        62
    22.8400        50
    22.9000        48
    22.9600        46
    23.0200        46
    23.0800        56
    23.1400        36
    23.2000        36
    23.2600        52
    23.3200        60
    23.3800        64
    23.4400        52
    23.5000        44
    23.5600        32
    23.6200        48
    23.6800        50
    23.7400        50
    23.8000        50
    23.8600        56
    23.9200        54
    23.9800        64
    24.0400        84
    24.1000        72
    24.1600        52
    24.2200        68
    24.2800        66
    24.3400        66
    24.4000        80
    24.4600        62
    24.5200        72
    24.5800        74
    24.6400       110
    24.7000       134
    24.7600       218
    24.8200       354
    24.8800       592
    24.9400      1076
    25.0000      2104
    25.0600      3474
    25.1200      3736
    25.1800      2396
    25.2400      1096
    25.3000       396
    25.3600       160
    25.4200       126
    25.4800       100
    25.5400        76
    25.6000        62
    25.6600        38
    25.7200        50
    25.7800        58
    25.8400        50
    25.9000        36
    25.9600        48
    26.0200        50
    26.0800        38
    26.1400        52
    26.2000        46
    26.2600        38
    26.3200        44
    26.3800        48
    26.4400        48
    26.5000        40
    26.5600        42
    26.6200        42
    26.6800        40
    26.7400        42
    26.8000        46
    26.8600        40
    26.9200        42
    26.9800        46
    27.0400        38
    27.1000        52
    27.1600        32
    27.2200        34
    27.2800        38
    27.3400        36
    27.4000        40
    27.4600        50
    27.5200        26
    27.5800        32
    27.6400        40
    27.7000        36
    27.7600        34
    27.8200        42
    27.8800        38
    27.9400        42
    28.0000        28
    28.0600        44
    28.1200        28
    28.1800        46
    28.2400        38
    28.3000        38
    28.3600        36
    28.4200        34
    28.4800        36
    28.5400        48
    28.6000        36
    28.6600        24
    28.7200        36
    28.7800        46
    28.8400        30
    28.9000        26
    28.9600        40
    29.0200        30
    29.0800        20
    29.1400        30
    29.2000        42
    29.2600        44
    29.3200        44
    29.3800        42
    29.4400        40
    29.5000        34
    29.5600        30
    29.6200        40
    29.6800        36
    29.7400        40
    29.8000        30
    29.8600        30
    29.9200        36
    29.9800        32
    30.0400        42
    30.1000        38
    30.1600        40
    30.2200        52
    30.2800        40
    30.3400        46
    30.4000        36
    30.4600        26
    30.5200        36
    30.5800        30
    30.6400        48
    30.7000        40
    30.7600        38
    30.8200        20
    30.8800        40
    30.9400        32
    31.0000        38
    31.0600        50
    31.1200        48
    31.1800        74
    31.2400        70
    31.3000       108
    31.3600       174
    31.4200       412
    31.4800       688
    31.5400       872
    31.6000       704
    31.6600       376
    31.7200       174
    31.7800        70
    31.8400        56
    31.9000        48
    31.9600        48
    32.0200        38
    32.0800        38
    32.1400        36
    32.2000        48
    32.2600        28
    32.3200        30
    32.3800        30
    32.4400        34
    32.5000        40
    32.5600        38
    32.6200        36
    32.6800        34
    32.7400        48
    32.8000        32
    32.8600        32
    32.9200        32
    32.9800        34
    33.0400        32
    33.1000        24
    33.1600        34
    33.2200        30
    33.2800        38
    33.3400        30
    33.4000        36
    33.4600        40
    33.5200        42
    33.5800        38
    33.6400        36
    33.7000        46
    33.7600        38
    33.8200        34
    33.8800        30
    33.9400        30
    34.0000        46
    34.0600        26
    34.1200        28
    34.1800        42
    34.2400        54
    34.3000        52
    34.3600        76
    34.4200        76
    34.4800        94
    34.5400        74
    34.6000        58
    34.6600        46
    34.7200        46
    34.7800        52
    34.8400        52
    34.9000        52
    34.9600        68
    35.0200        84
    35.0800       102
    35.1400        82
    35.2000        62
    35.2600        54
    35.3200        38
    35.3800        42
    35.4400        46
    35.5000        30
    35.5600        30
    35.6200        40
    35.6800        28
    35.7400        34
    35.8000        28
    35.8600        34
    35.9200        28
    35.9800        34
    36.0400        30
    36.1000        42
    36.1600        40
    36.2200        38
    36.2800        36
    36.3400        46
    36.4000        62
    36.4600        72
    36.5200        80
    36.5800        96
    36.6400        94
    36.7000        84
    36.7600        68
    36.8200        64
    36.8800        34
    36.9400        34
    37.0000        32
    37.0600        40
    37.1200        34
    37.1800        30
    37.2400        48
    37.3000        46
    37.3600        40
    37.4200        70
    37.4800        64
    37.5400       100
    37.6000        86
    37.6600        72
    37.7200        58
    37.7800        62
    37.8400        42
    37.9000        42
    37.9600        48
    38.0200        38
    38.0800        46
    38.1400        34
    38.2000        46
    38.2600        34
    38.3200        34
    38.3800        20
    38.4400        36
    38.5000        34
    38.5600        34
    38.6200        30
    38.6800        46
    38.7400        36
    38.8000        38
    38.8600        42
    38.9200        40
    38.9800        30
    39.0400        36
    39.1000        38
    39.1600        24
    39.2200        32
    39.2800        38
    39.3400        26
    39.4000        26
    39.4600        42
    39.5200        48
    39.5800        50
    39.6400        82
    39.7000        86
    39.7600        72
    39.8200        78
    39.8800        76
    39.9400        44
    40.0000        40
    40.0600        28
    40.1200        24
    40.1800        26
    40.2400        28
    40.3000        30
    40.3600        36
    40.4200        24
    40.4800        32
    40.5400        32
    40.6000        30
    40.6600        24
    40.7200        24
    40.7800        26
    40.8400        26
    40.9000        12
    40.9600        34
    41.0200        24
    41.0800        42
    41.1400        40
    41.2000        26
    41.2600        34
    41.3200        20
    41.3800        18
    41.4400        18
    41.5000        24
    41.5600        20
    41.6200        38
    41.6800        24
    41.7400        20
    41.8000        30
    41.8600        28
    41.9200        28
    41.9800        22
    42.0400        22
    42.1000        30
    42.1600        32
    42.2200        30
    42.2800        36
    42.3400        20
    42.4000        32
    42.4600        28
    42.5200        22
    42.5800        36
    42.6400        34
    42.7000        28
    42.7600        30
    42.8200        30
    42.8800        28
    42.9400        42
    43.0000        26
    43.0600        38
    43.1200        36
    43.1800        24
    43.2400        24
    43.3000        44
    43.3600        26
    43.4200        24
    43.4800        40
    43.5400        30
    43.6000        38
    43.6600        40
    43.7200        34
    43.7800        32
    43.8400        30
    43.9000        28
    43.9600        38
    44.0200        40
    44.0800        34
    44.1400        36
    44.2000        34
    44.2600        36
    44.3200        34
    44.3800        38
    44.4400        38
    44.5000        46
    44.5600        56
    44.6200        90
    44.6800       150
    44.7400       206
    44.8000       218
    44.8600       158
    44.9200       138
    44.9800       134
    45.0400       146
    45.1000       142
    45.1600       142
    45.2200       122
    45.2800       110
    45.3400        96
    45.4000        62
    45.4600        52
    45.5200        44
    45.5800        58
    45.6400        34
    45.7000        28
    45.7600        28
    45.8200        32
    45.8800        28
    45.9400        32
    46.0000        32
    46.0600        34
    46.1200        34
    46.1800        26
    46.2400        24
    46.3000        34
    46.3600        20
    46.4200        26
    46.4800        28
    46.5400        36
    46.6000        26
    46.6600        24
    46.7200        30
    46.7800        30
    46.8400        38
    46.9000        28
    46.9600        30
    47.0200        28
    47.0800        36
    47.1400        20
    47.2000        34
    47.2600        30
    47.3200        34
    47.3800        28
    47.4400        34
    47.5000        28
    47.5600        42
    47.6200        22
    47.6800        28
    47.7400        30
    47.8000        28
    47.8600        44
    47.9200        52
    47.9800        40
    48.0400        56
    48.1000        94
    48.1600        96
    48.2200        96
    48.2800        68
    48.3400        66
    48.4000        44
    48.4600        44
    48.5200        44
    48.5800        32
    48.6400        28
    48.7000        26
    48.7600        26
    48.8200        44
    48.8800        36
    48.9400        44
    49.0000        32
    49.0600        28
    49.1200        36
    49.1800        32
    49.2400        36
    49.3000        36
    49.3600        40
    49.4200        36
    49.4800        24
    49.5400        18
    49.6000        48
    49.6600        42
    49.7200        40
    49.7800        40
    49.8400        54
    49.9000        64
    49.9600        58
    50.0200        56
    50.0800        44
    50.1400        44
    50.2000        30
    50.2600        32
    50.3200        30
    50.3800        32
    50.4400        26
    50.5000        38
    50.5600        38
    50.6200        28
    50.6800        20
    50.7400        24
    50.8000        34
    50.8600        22
    50.9200        28
    50.9800        28
    51.0400        30
    51.1000        36
    51.1600        26
    51.2200        34
    51.2800        22
    51.3400        30
    51.4000        22
    51.4600        28
    51.5200        26
    51.5800        34
    51.6400        32
    51.7000        30
    51.7600        28
    51.8200        38
    51.8800        30
    51.9400        30
    52.0000        28
    52.0600        26
    52.1200        26
    52.1800        36
    52.2400        32
    52.3000        32
    52.3600        28
    52.4200        30
    52.4800        32
    52.5400        40
    52.6000        32
    52.6600        38
    52.7200        36
    52.7800        24
    52.8400        34
    52.9000        32
    52.9600        40
    53.0200        40
    53.0800        30
    53.1400        46
    53.2000        46
    53.2600        50
    53.3200        54
    53.3800        44
    53.4400        54
    53.5000        32
    53.5600        34
    53.6200        32
    53.6800        28
    53.7400        28
    53.8000        36
    53.8600        24
    53.9200        30
    53.9800        28
    54.0400        34
    54.1000        26
    54.1600        40
    54.2200        30
    54.2800        24
    54.3400        16
    54.4000        24
    54.4600        28
    54.5200        38
    54.5800        32
    54.6400        24
    54.7000        32
    54.7600        34
    54.8200        40
    54.8800        44
    54.9400        40
    55.0000        46
    55.0600        62
    55.1200        52
    55.1800        68
    55.2400        78
    55.3000        52
    55.3600        44
    55.4200        36
    55.4800        56
    55.5400        36
    55.6000        52
    55.6600        32
    55.7200        26
    55.7800        32
    55.8400        34
    55.9000        26
    55.9600        28
    56.0200        28
    56.0800        24
    56.1400        36
    56.2000        28
    56.2600        20
    56.3200        30
    56.3800        26
    56.4400        26
    56.5000        22
    56.5600        34
    56.6200        26
    56.6800        32
    56.7400        36
    56.8000        36
    56.8600        42
    56.9200        24
    56.9800        36
    57.0400        34
    57.1000        30
    57.1600        36
    57.2200        28
    57.2800        28
    57.3400        32
    57.4000        32
    57.4600        20
    57.5200        36
    57.5800        32
    57.6400        30
    57.7000        28
    57.7600        32
    57.8200        22
    57.8800        34
    57.9400        34
    58.0000        34
    58.0600        26
    58.1200        30
    58.1800        28
    58.2400        42
    58.3000        38
    58.3600        42
    58.4200        42
    58.4800        40
    58.5400        76
    58.6000        90
    58.6600       122
    58.7200       134
    58.7800       156
    58.8400       164
    58.9000       162
    58.9600       158
    59.0200       160
    59.0800       124
    59.1400        90
    59.2000        90
    59.2600        56
    59.3200        48
    59.3800        44
    59.4400        34
    59.5000        42
    59.5600        52
    59.6200        80
    59.6800        72
    59.7400        58
    59.8000        80
    59.8600        58
    59.9200        54
    59.9800        44
    60.0400        42
    60.1000        40
    60.1600        42
    60.2200        38
    60.2800        42
    60.3400        30
    60.4000        30
    60.4600        30
    60.5200        26
    60.5800        28
    60.6400        40
    60.7000        32
    60.7600        42
    60.8200        34
    60.8800        40
    60.9400        54
    61.0000        46
    61.0600        30
    61.1200        36
    61.1800        48
    61.2400        60
    61.3000        46
    61.3600        42
    61.4200        40
    61.4800        30
    61.5400        30
    61.6000        36
    61.6600        32
    61.7200        36
    61.7800        20
    61.8400        26
    61.9000        26
    61.9600        16
    62.0200        24
    62.0800        24
    62.1400        28
    62.2000        28
    62.2600        28
    62.3200        28
    62.3800        32
    62.4400        38
    62.5000        34
    62.5600        28
    62.6200        32
    62.6800        24
    62.7400        36
    62.8000        30
    62.8600        28
    62.9200        22
    62.9800        30
    63.0400        26
    63.1000        30
    63.1600        28
    63.2200        34
    63.2800        34
    63.3400        36
    63.4000        28
    63.4600        30
    63.5200        26
    63.5800        22
    63.6400        36
    63.7000        24
    63.7600        26
    63.8200        26
    63.8800        40
    63.9400        28
    64.0000        24
    64.0600        26
    64.1200        32
    64.1800        24
    64.2400        22
    64.3000        28
    64.3600        24
    64.4200        22
    64.4800        36
    64.5400        24
    64.6000        18
    64.6600        30
    64.7200        24
    64.7800        30
    64.8400        34
    64.9000        28
    64.9600        40
    65.0000        56