File: sl1/usgs/library06/DESCRIPT/new_xrd_results_to_be_added/Rhonda_Driscoll_xrd_runs/GDS158---Clinochlore--.txt
/////////////////////////////////////////////////////////////////////////////////
/// Profile Data Ascii Dump (XRD)                                             ///
/////////////////////////////////////////////////////////////////////////////////

  Group     : Swayze
  Data      : GDS158
  File Name : GDS158.RAW

# Profile Datafile
          comment             = Clinochlore
          date & time         = 08-04-14 08:24:53

# Measurement Condition
    X-ray tube
          target              = Cu
          voltage             = 40.0 (kV)
          current             = 30.0 (mA)
    Slits
          divergence slit     = 2.00000 (deg)
          scatter slit        = 2.00000 (deg)
          receiving slit      = 0.15000 (mm)
    Scanning
          drive axis          = Theta-2Theta
          scan range          =    4.000 -   65.000
          scan mode           = Continuous Scan
          scan speed          =   2.0000 (deg/min)
          sampling pitch      =   0.0200 (deg)
          preset time         =   0.60 (sec)

# Data      [ Total No. = 3051 ]
  <2Theta>   <   I   >
     4.0000       188
     4.0600       210
     4.1200       178
     4.1800       228
     4.2400       200
     4.3000       208
     4.3600       176
     4.4200       170
     4.4800       188
     4.5400       150
     4.6000       164
     4.6600       164
     4.7200       160
     4.7800       162
     4.8400       160
     4.9000       160
     4.9600       172
     5.0200       176
     5.0800       162
     5.1400       182
     5.2000       164
     5.2600       158
     5.3200       174
     5.3800       176
     5.4400       162
     5.5000       194
     5.5600       208
     5.6200       214
     5.6800       212
     5.7400       234
     5.8000       278
     5.8600       334
     5.9200       404
     5.9800       508
     6.0400       738
     6.1000      1180
     6.1600      2026
     6.2200      1488
     6.2800       470
     6.3400       256
     6.4000       220
     6.4600       188
     6.5200       170
     6.5800       150
     6.6400       148
     6.7000       126
     6.7600       150
     6.8200       148
     6.8800       142
     6.9400       134
     7.0000       140
     7.0600       108
     7.1200       154
     7.1800       144
     7.2400       128
     7.3000       126
     7.3600       138
     7.4200       104
     7.4800       140
     7.5400       134
     7.6000       116
     7.6600       112
     7.7200       132
     7.7800       120
     7.8400        92
     7.9000       114
     7.9600       126
     8.0200       114
     8.0800       130
     8.1400       112
     8.2000       120
     8.2600       114
     8.3200       122
     8.3800       126
     8.4400       104
     8.5000       106
     8.5600       112
     8.6200       126
     8.6800       120
     8.7400       114
     8.8000       132
     8.8600       112
     8.9200       134
     8.9800       116
     9.0400       130
     9.1000       134
     9.1600       128
     9.2200       114
     9.2800       112
     9.3400       108
     9.4000       114
     9.4600       124
     9.5200       108
     9.5800       144
     9.6400       116
     9.7000       108
     9.7600        92
     9.8200       114
     9.8800        92
     9.9400       128
    10.0000       102
    10.0600       108
    10.1200       112
    10.1800       120
    10.2400       122
    10.3000       108
    10.3600       100
    10.4200        88
    10.4800       102
    10.5400        80
    10.6000       100
    10.6600       100
    10.7200        92
    10.7800       106
    10.8400        92
    10.9000       100
    10.9600       108
    11.0200        86
    11.0800        92
    11.1400       118
    11.2000       100
    11.2600       108
    11.3200        86
    11.3800       112
    11.4400        96
    11.5000       106
    11.5600       108
    11.6200       132
    11.6800       152
    11.7400       132
    11.8000       176
    11.8600       240
    11.9200       268
    11.9800       332
    12.0400       428
    12.1000       582
    12.1600       892
    12.2200      1342
    12.2800      2114
    12.3400      4200
    12.4000      6082
    12.4600      4794
    12.5200      1424
    12.5800       388
    12.6400       280
    12.7000       212
    12.7600       120
    12.8200        86
    12.8800        84
    12.9400       100
    13.0000        96
    13.0600        82
    13.1200        84
    13.1800        80
    13.2400        78
    13.3000        76
    13.3600        52
    13.4200        82
    13.4800        64
    13.5400        76
    13.6000        76
    13.6600        76
    13.7200        60
    13.7800        76
    13.8400        68
    13.9000        66
    13.9600        74
    14.0200        72
    14.0800        70
    14.1400        66
    14.2000        62
    14.2600        60
    14.3200        62
    14.3800        76
    14.4400        64
    14.5000        52
    14.5600        78
    14.6200        66
    14.6800        70
    14.7400        68
    14.8000        60
    14.8600        70
    14.9200        62
    14.9800        66
    15.0400        58
    15.1000        84
    15.1600        56
    15.2200        58
    15.2800        72
    15.3400        74
    15.4000        60
    15.4600        64
    15.5200        68
    15.5800        74
    15.6400        60
    15.7000        62
    15.7600        62
    15.8200        64
    15.8800        58
    15.9400        76
    16.0000        58
    16.0600        64
    16.1200        56
    16.1800        50
    16.2400        44
    16.3000        58
    16.3600        66
    16.4200        70
    16.4800        68
    16.5400        60
    16.6000        70
    16.6600        58
    16.7200        66
    16.7800        86
    16.8400        86
    16.9000        68
    16.9600        56
    17.0200        60
    17.0800        64
    17.1400        64
    17.2000        76
    17.2600        66
    17.3200        66
    17.3800        68
    17.4400        56
    17.5000        72
    17.5600        64
    17.6200        66
    17.6800        72
    17.7400        58
    17.8000        82
    17.8600        84
    17.9200        72
    17.9800        76
    18.0400        84
    18.1000        98
    18.1600       108
    18.2200       148
    18.2800       208
    18.3400       286
    18.4000       384
    18.4600       584
    18.5200      1074
    18.5800      2130
    18.6400      3568
    18.7000      4440
    18.7600      3056
    18.8200      1028
    18.8800       296
    18.9400       182
    19.0000       146
    19.0600       112
    19.1200        90
    19.1800        94
    19.2400        92
    19.3000        78
    19.3600        88
    19.4200        72
    19.4800        70
    19.5400        70
    19.6000        72
    19.6600        62
    19.7200        88
    19.7800        68
    19.8400        62
    19.9000        54
    19.9600        58
    20.0200        54
    20.0800        66
    20.1400        76
    20.2000        60
    20.2600        64
    20.3200        62
    20.3800        62
    20.4400        58
    20.5000        68
    20.5600        48
    20.6200        58
    20.6800        76
    20.7400        70
    20.8000        58
    20.8600        78
    20.9200        86
    20.9800        76
    21.0400        52
    21.1000        66
    21.1600        50
    21.2200        56
    21.2800        68
    21.3400        50
    21.4000        58
    21.4600        50
    21.5200        62
    21.5800        56
    21.6400        62
    21.7000        60
    21.7600        48
    21.8200        66
    21.8800        50
    21.9400        36
    22.0000        66
    22.0600        68
    22.1200        66
    22.1800        60
    22.2400        52
    22.3000        72
    22.3600        68
    22.4200        68
    22.4800        80
    22.5400        80
    22.6000        82
    22.6600        76
    22.7200        62
    22.7800        62
    22.8400        60
    22.9000        68
    22.9600        52
    23.0200        52
    23.0800        50
    23.1400        62
    23.2000        60
    23.2600        64
    23.3200        64
    23.3800        82
    23.4400        64
    23.5000        60
    23.5600        48
    23.6200        72
    23.6800        82
    23.7400        66
    23.8000        68
    23.8600       100
    23.9200       108
    23.9800        84
    24.0400        86
    24.1000        98
    24.1600        86
    24.2200        98
    24.2800       106
    24.3400        78
    24.4000       108
    24.4600       134
    24.5200       162
    24.5800       198
    24.6400       280
    24.7000       456
    24.7600       744
    24.8200      1294
    24.8800      2504
    24.9400      4866
    25.0000      7624
    25.0600      8524
    25.1200      5032
    25.1800      1796
    25.2400       546
    25.3000       344
    25.3600       220
    25.4200       138
    25.4800       124
    25.5400        92
    25.6000        80
    25.6600        88
    25.7200        92
    25.7800        76
    25.8400        68
    25.9000        64
    25.9600        64
    26.0200        62
    26.0800        62
    26.1400        72
    26.2000        54
    26.2600        50
    26.3200        56
    26.3800        52
    26.4400        58
    26.5000        56
    26.5600        46
    26.6200        58
    26.6800        58
    26.7400        50
    26.8000        66
    26.8600        42
    26.9200        48
    26.9800        40
    27.0400        44
    27.1000        56
    27.1600        68
    27.2200        76
    27.2800        80
    27.3400       108
    27.4000        82
    27.4600        68
    27.5200        48
    27.5800        56
    27.6400        46
    27.7000        44
    27.7600        50
    27.8200        52
    27.8800        66
    27.9400        34
    28.0000        52
    28.0600        50
    28.1200        60
    28.1800        50
    28.2400        50
    28.3000        62
    28.3600        54
    28.4200        58
    28.4800        48
    28.5400        44
    28.6000        48
    28.6600        50
    28.7200        44
    28.7800        48
    28.8400        46
    28.9000        34
    28.9600        52
    29.0200        50
    29.0800        42
    29.1400        50
    29.2000        36
    29.2600        38
    29.3200        44
    29.3800        52
    29.4400        38
    29.5000        40
    29.5600        40
    29.6200        38
    29.6800        50
    29.7400        40
    29.8000        54
    29.8600        56
    29.9200        54
    29.9800        46
    30.0400        52
    30.1000        48
    30.1600        46
    30.2200        48
    30.2800        46
    30.3400        64
    30.4000        52
    30.4600        46
    30.5200        58
    30.5800        40
    30.6400        40
    30.7000        50
    30.7600        56
    30.8200        48
    30.8800        56
    30.9400        72
    31.0000        76
    31.0600       112
    31.1200       136
    31.1800       214
    31.2400       362
    31.3000       616
    31.3600      1242
    31.4200      1862
    31.4800      2292
    31.5400      1570
    31.6000       692
    31.6600       258
    31.7200       150
    31.7800       108
    31.8400        82
    31.9000        56
    31.9600        58
    32.0200        50
    32.0800        36
    32.1400        58
    32.2000        46
    32.2600        64
    32.3200        40
    32.3800        44
    32.4400        36
    32.5000        40
    32.5600        54
    32.6200        50
    32.6800        36
    32.7400        50
    32.8000        26
    32.8600        46
    32.9200        40
    32.9800        42
    33.0400        44
    33.1000        44
    33.1600        38
    33.2200        36
    33.2800        46
    33.3400        38
    33.4000        38
    33.4600        32
    33.5200        44
    33.5800        46
    33.6400        50
    33.7000        46
    33.7600        36
    33.8200        34
    33.8800        42
    33.9400        42
    34.0000        24
    34.0600        36
    34.1200        44
    34.1800        56
    34.2400        54
    34.3000        44
    34.3600        62
    34.4200        84
    34.4800        72
    34.5400       106
    34.6000        98
    34.6600        60
    34.7200        52
    34.7800        44
    34.8400        48
    34.9000        62
    34.9600        64
    35.0200        90
    35.0800       110
    35.1400       134
    35.2000        76
    35.2600        84
    35.3200        60
    35.3800        58
    35.4400        46
    35.5000        52
    35.5600        40
    35.6200        42
    35.6800        38
    35.7400        40
    35.8000        44
    35.8600        52
    35.9200        40
    35.9800        36
    36.0400        58
    36.1000        26
    36.1600        38
    36.2200        48
    36.2800        26
    36.3400        46
    36.4000        60
    36.4600        80
    36.5200        84
    36.5800       102
    36.6400       120
    36.7000       108
    36.7600        94
    36.8200        80
    36.8800        56
    36.9400        48
    37.0000        36
    37.0600        36
    37.1200        48
    37.1800        50
    37.2400        44
    37.3000        52
    37.3600        44
    37.4200        60
    37.4800        52
    37.5400        92
    37.6000        94
    37.6600        92
    37.7200        66
    37.7800        62
    37.8400        66
    37.9000        60
    37.9600        84
    38.0200        80
    38.0800        64
    38.1400        60
    38.2000        48
    38.2600        36
    38.3200        48
    38.3800        40
    38.4400        50
    38.5000        26
    38.5600        26
    38.6200        42
    38.6800        38
    38.7400        26
    38.8000        28
    38.8600        34
    38.9200        42
    38.9800        34
    39.0400        36
    39.1000        46
    39.1600        50
    39.2200        38
    39.2800        32
    39.3400        36
    39.4000        34
    39.4600        44
    39.5200        46
    39.5800        56
    39.6400        74
    39.7000        60
    39.7600        88
    39.8200        82
    39.8800        48
    39.9400        54
    40.0000        46
    40.0600        32
    40.1200        42
    40.1800        38
    40.2400        38
    40.3000        46
    40.3600        30
    40.4200        30
    40.4800        36
    40.5400        30
    40.6000        38
    40.6600        26
    40.7200        32
    40.7800        32
    40.8400        38
    40.9000        32
    40.9600        34
    41.0200        36
    41.0800        32
    41.1400        38
    41.2000        22
    41.2600        40
    41.3200        30
    41.3800        36
    41.4400        48
    41.5000        42
    41.5600        32
    41.6200        34
    41.6800        22
    41.7400        32
    41.8000        36
    41.8600        18
    41.9200        24
    41.9800        26
    42.0400        30
    42.1000        28
    42.1600        32
    42.2200        36
    42.2800        22
    42.3400        34
    42.4000        36
    42.4600        40
    42.5200        36
    42.5800        32
    42.6400        28
    42.7000        26
    42.7600        36
    42.8200        30
    42.8800        30
    42.9400        24
    43.0000        32
    43.0600        30
    43.1200        36
    43.1800        30
    43.2400        38
    43.3000        42
    43.3600        48
    43.4200        36
    43.4800        66
    43.5400        44
    43.6000        60
    43.6600        50
    43.7200        48
    43.7800        52
    43.8400        34
    43.9000        36
    43.9600        48
    44.0200        58
    44.0800        40
    44.1400        32
    44.2000        44
    44.2600        52
    44.3200        64
    44.3800        68
    44.4400        74
    44.5000       168
    44.5600       288
    44.6200       462
    44.6800       552
    44.7400       412
    44.8000       310
    44.8600       160
    44.9200       140
    44.9800       146
    45.0400       172
    45.1000       188
    45.1600       180
    45.2200       156
    45.2800       136
    45.3400        92
    45.4000        80
    45.4600        52
    45.5200        56
    45.5800        42
    45.6400        40
    45.7000        30
    45.7600        34
    45.8200        44
    45.8800        46
    45.9400        42
    46.0000        32
    46.0600        30
    46.1200        20
    46.1800        38
    46.2400        42
    46.3000        34
    46.3600        34
    46.4200        30
    46.4800        44
    46.5400        40
    46.6000        20
    46.6600        30
    46.7200        40
    46.7800        34
    46.8400        32
    46.9000        38
    46.9600        36
    47.0200        34
    47.0800        36
    47.1400        44
    47.2000        30
    47.2600        32
    47.3200        24
    47.3800        40
    47.4400        26
    47.5000        32
    47.5600        36
    47.6200        38
    47.6800        32
    47.7400        36
    47.8000        32
    47.8600        38
    47.9200        38
    47.9800        66
    48.0400        76
    48.1000        80
    48.1600        98
    48.2200       104
    48.2800       100
    48.3400        76
    48.4000        60
    48.4600        74
    48.5200        48
    48.5800        46
    48.6400        46
    48.7000        32
    48.7600        40
    48.8200        36
    48.8800        38
    48.9400        36
    49.0000        40
    49.0600        20
    49.1200        42
    49.1800        32
    49.2400        30
    49.3000        28
    49.3600        30
    49.4200        30
    49.4800        24
    49.5400        30
    49.6000        64
    49.6600        56
    49.7200        60
    49.7800        80
    49.8400        86
    49.9000        78
    49.9600        70
    50.0200        74
    50.0800        58
    50.1400        42
    50.2000        42
    50.2600        38
    50.3200        50
    50.3800        28
    50.4400        38
    50.5000        46
    50.5600        32
    50.6200        36
    50.6800        36
    50.7400        30
    50.8000        40
    50.8600        30
    50.9200        50
    50.9800        30
    51.0400        30
    51.1000        24
    51.1600        32
    51.2200        36
    51.2800        18
    51.3400        34
    51.4000        32
    51.4600        30
    51.5200        32
    51.5800        32
    51.6400        48
    51.7000        28
    51.7600        30
    51.8200        26
    51.8800        34
    51.9400        28
    52.0000        30
    52.0600        38
    52.1200        26
    52.1800        38
    52.2400        22
    52.3000        36
    52.3600        40
    52.4200        28
    52.4800        36
    52.5400        34
    52.6000        36
    52.6600        28
    52.7200        32
    52.7800        34
    52.8400        32
    52.9000        44
    52.9600        32
    53.0200        42
    53.0800        46
    53.1400        34
    53.2000        42
    53.2600        34
    53.3200        34
    53.3800        34
    53.4400        36
    53.5000        48
    53.5600        42
    53.6200        36
    53.6800        42
    53.7400        42
    53.8000        34
    53.8600        38
    53.9200        42
    53.9800        22
    54.0400        28
    54.1000        30
    54.1600        44
    54.2200        42
    54.2800        28
    54.3400        26
    54.4000        36
    54.4600        40
    54.5200        26
    54.5800        36
    54.6400        30
    54.7000        42
    54.7600        38
    54.8200        38
    54.8800        44
    54.9400        56
    55.0000        50
    55.0600        46
    55.1200        64
    55.1800        72
    55.2400        88
    55.3000        60
    55.3600        66
    55.4200        60
    55.4800        26
    55.5400        46
    55.6000        36
    55.6600        42
    55.7200        28
    55.7800        38
    55.8400        36
    55.9000        28
    55.9600        38
    56.0200        20
    56.0800        44
    56.1400        56
    56.2000        34
    56.2600        26
    56.3200        36
    56.3800        48
    56.4400        36
    56.5000        34
    56.5600        44
    56.6200        44
    56.6800        40
    56.7400        34
    56.8000        28
    56.8600        26
    56.9200        34
    56.9800        24
    57.0400        28
    57.1000        38
    57.1600        36
    57.2200        38
    57.2800        32
    57.3400        32
    57.4000        26
    57.4600        20
    57.5200        26
    57.5800        22
    57.6400        34
    57.7000        30
    57.7600        34
    57.8200        32
    57.8800        38
    57.9400        40
    58.0000        28
    58.0600        34
    58.1200        50
    58.1800        30
    58.2400        38
    58.3000        50
    58.3600        68
    58.4200       110
    58.4800       160
    58.5400       164
    58.6000       160
    58.6600       166
    58.7200       220
    58.7800       252
    58.8400       202
    58.9000       214
    58.9600       180
    59.0200       180
    59.0800       138
    59.1400       122
    59.2000       100
    59.2600        88
    59.3200        80
    59.3800        56
    59.4400        52
    59.5000        44
    59.5600        42
    59.6200        38
    59.6800        38
    59.7400        38
    59.8000        66
    59.8600        98
    59.9200        86
    59.9800        56
    60.0400        62
    60.1000        68
    60.1600        44
    60.2200        26
    60.2800        38
    60.3400        40
    60.4000        38
    60.4600        30
    60.5200        30
    60.5800        30
    60.6400        46
    60.7000        34
    60.7600        52
    60.8200        52
    60.8800        48
    60.9400        54
    61.0000        40
    61.0600        54
    61.1200        40
    61.1800        36
    61.2400        40
    61.3000        32
    61.3600        46
    61.4200        32
    61.4800        58
    61.5400        36
    61.6000        48
    61.6600        44
    61.7200        44
    61.7800        38
    61.8400        28
    61.9000        32
    61.9600        34
    62.0200        30
    62.0800        44
    62.1400        32
    62.2000        40
    62.2600        44
    62.3200        32
    62.3800        26
    62.4400        30
    62.5000        30
    62.5600        36
    62.6200        38
    62.6800        30
    62.7400        32
    62.8000        32
    62.8600        24
    62.9200        40
    62.9800        30
    63.0400        40
    63.1000        36
    63.1600        28
    63.2200        32
    63.2800        32
    63.3400        36
    63.4000        46
    63.4600        40
    63.5200        38
    63.5800        30
    63.6400        20
    63.7000        40
    63.7600        38
    63.8200        48
    63.8800        36
    63.9400        36
    64.0000        40
    64.0600        34
    64.1200        32
    64.1800        36
    64.2400        32
    64.3000        38
    64.3600        34
    64.4200        26
    64.4800        20
    64.5400        36
    64.6000        38
    64.6600        30
    64.7200        42
    64.7800        48
    64.8400        38
    64.9000        48
    64.9600        46
    65.0000        38