File: sl1/usgs/library06/DESCRIPT/new_xrd_results_to_be_added/Rhonda_Driscoll_xrd_runs/GDS188-Saponite.txt
/////////////////////////////////////////////////////////////////////////////////
/// Profile Data Ascii Dump (XRD)                                             ///
/////////////////////////////////////////////////////////////////////////////////

  Group     : Swayze
  Data      : GDS188
  File Name : GDS188.RAW

# Profile Datafile
          comment             = Saponite
          date & time         = 08-04-28 08:20:18

# Measurement Condition
    X-ray tube
          target              = Cu
          voltage             = 40.0 (kV)
          current             = 30.0 (mA)
    Slits
          divergence slit     = 2.00000 (deg)
          scatter slit        = 2.00000 (deg)
          receiving slit      = 0.15000 (mm)
    Scanning
          drive axis          = Theta-2Theta
          scan range          =    4.000 -   65.000
          scan mode           = Continuous Scan
          scan speed          =   2.0000 (deg/min)
          sampling pitch      =   0.0200 (deg)
          preset time         =   0.60 (sec)

# Data      [ Total No. = 3051 ]
  <2Theta>   <   I   >
     4.0000       234
     4.0600       238
     4.1200       238
     4.1800       222
     4.2400       238
     4.3000       232
     4.3600       236
     4.4200       214
     4.4800       210
     4.5400       222
     4.6000       226
     4.6600       232
     4.7200       216
     4.7800       214
     4.8400       232
     4.9000       192
     4.9600       240
     5.0200       228
     5.0800       232
     5.1400       232
     5.2000       206
     5.2600       224
     5.3200       230
     5.3800       248
     5.4400       264
     5.5000       230
     5.5600       270
     5.6200       256
     5.6800       260
     5.7400       278
     5.8000       270
     5.8600       336
     5.9200       328
     5.9800       304
     6.0400       328
     6.1000       364
     6.1600       370
     6.2200       372
     6.2800       398
     6.3400       474
     6.4000       410
     6.4600       496
     6.5200       460
     6.5800       550
     6.6400       608
     6.7000       642
     6.7600       748
     6.8200       820
     6.8800       900
     6.9400      1078
     7.0000      1212
     7.0600      1430
     7.1200      1626
     7.1800      1572
     7.2400      1584
     7.3000      1390
     7.3600      1108
     7.4200       942
     7.4800       824
     7.5400       748
     7.6000       614
     7.6600       520
     7.7200       450
     7.7800       402
     7.8400       376
     7.9000       310
     7.9600       288
     8.0200       266
     8.0800       238
     8.1400       238
     8.2000       210
     8.2600       212
     8.3200       190
     8.3800       166
     8.4400       188
     8.5000       172
     8.5600       164
     8.6200       146
     8.6800       130
     8.7400       172
     8.8000       196
     8.8600       152
     8.9200       158
     8.9800       166
     9.0400       130
     9.1000       134
     9.1600       124
     9.2200       136
     9.2800       140
     9.3400       122
     9.4000       124
     9.4600       124
     9.5200       126
     9.5800       132
     9.6400       140
     9.7000       126
     9.7600       120
     9.8200       128
     9.8800       118
     9.9400       122
    10.0000       120
    10.0600       120
    10.1200       134
    10.1800       144
    10.2400       104
    10.3000       144
    10.3600       168
    10.4200       232
    10.4800       150
    10.5400       108
    10.6000       112
    10.6600        96
    10.7200        92
    10.7800        84
    10.8400       112
    10.9000        92
    10.9600       110
    11.0200        94
    11.0800        78
    11.1400        86
    11.2000        96
    11.2600        90
    11.3200        78
    11.3800        80
    11.4400        68
    11.5000        70
    11.5600       106
    11.6200       102
    11.6800        78
    11.7400        84
    11.8000        78
    11.8600        78
    11.9200        88
    11.9800        84
    12.0400       100
    12.1000        60
    12.1600        84
    12.2200        90
    12.2800        88
    12.3400        86
    12.4000       100
    12.4600        92
    12.5200        88
    12.5800        76
    12.6400        76
    12.7000        72
    12.7600        74
    12.8200        84
    12.8800        70
    12.9400        80
    13.0000        68
    13.0600        84
    13.1200        70
    13.1800        94
    13.2400        74
    13.3000        80
    13.3600        70
    13.4200        76
    13.4800        66
    13.5400        80
    13.6000        78
    13.6600        82
    13.7200        74
    13.7800        96
    13.8400        98
    13.9000        68
    13.9600        88
    14.0200        94
    14.0800        98
    14.1400        92
    14.2000        96
    14.2600       118
    14.3200       146
    14.3800       146
    14.4400       162
    14.5000       126
    14.5600       152
    14.6200       148
    14.6800       110
    14.7400       100
    14.8000       118
    14.8600        88
    14.9200       100
    14.9800       108
    15.0400        98
    15.1000        90
    15.1600        86
    15.2200        88
    15.2800        82
    15.3400        76
    15.4000        92
    15.4600       100
    15.5200        74
    15.5800        74
    15.6400        90
    15.7000        72
    15.7600        72
    15.8200        90
    15.8800        74
    15.9400        68
    16.0000        74
    16.0600        68
    16.1200        62
    16.1800        80
    16.2400        60
    16.3000        56
    16.3600        72
    16.4200        80
    16.4800        92
    16.5400        62
    16.6000        68
    16.6600        62
    16.7200        62
    16.7800        66
    16.8400        72
    16.9000        70
    16.9600        60
    17.0200        52
    17.0800        70
    17.1400        58
    17.2000        62
    17.2600        60
    17.3200        70
    17.3800        66
    17.4400        72
    17.5000        74
    17.5600        78
    17.6200        66
    17.6800        86
    17.7400        74
    17.8000        74
    17.8600        80
    17.9200        66
    17.9800        70
    18.0400        74
    18.1000        78
    18.1600        66
    18.2200        58
    18.2800        82
    18.3400        64
    18.4000        66
    18.4600        64
    18.5200        66
    18.5800        76
    18.6400        62
    18.7000        66
    18.7600        54
    18.8200        80
    18.8800        74
    18.9400       108
    19.0000        94
    19.0600       150
    19.1200       212
    19.1800       276
    19.2400       280
    19.3000       258
    19.3600       222
    19.4200       206
    19.4800       202
    19.5400       210
    19.6000       204
    19.6600       176
    19.7200       176
    19.7800       170
    19.8400       136
    19.9000       156
    19.9600       162
    20.0200       158
    20.0800       130
    20.1400       156
    20.2000       120
    20.2600       130
    20.3200       118
    20.3800       116
    20.4400       126
    20.5000       106
    20.5600       122
    20.6200       126
    20.6800       116
    20.7400       112
    20.8000       114
    20.8600        88
    20.9200       120
    20.9800       148
    21.0400       136
    21.1000       130
    21.1600       110
    21.2200       118
    21.2800        98
    21.3400        92
    21.4000       104
    21.4600       106
    21.5200       120
    21.5800        92
    21.6400        94
    21.7000       116
    21.7600       102
    21.8200        98
    21.8800       100
    21.9400       114
    22.0000       102
    22.0600       104
    22.1200       106
    22.1800        92
    22.2400        84
    22.3000       100
    22.3600       116
    22.4200        98
    22.4800       106
    22.5400       106
    22.6000       110
    22.6600        98
    22.7200       104
    22.7800       102
    22.8400       102
    22.9000       116
    22.9600       110
    23.0200        98
    23.0800       104
    23.1400       100
    23.2000        80
    23.2600       100
    23.3200       100
    23.3800       116
    23.4400        80
    23.5000        98
    23.5600        94
    23.6200       106
    23.6800       106
    23.7400        98
    23.8000        92
    23.8600       100
    23.9200        94
    23.9800       102
    24.0400        90
    24.1000        88
    24.1600       114
    24.2200       100
    24.2800       100
    24.3400        92
    24.4000       100
    24.4600        96
    24.5200       108
    24.5800        78
    24.6400       112
    24.7000       108
    24.7600       106
    24.8200       104
    24.8800        96
    24.9400        76
    25.0000       102
    25.0600        78
    25.1200        88
    25.1800        80
    25.2400        84
    25.3000        98
    25.3600        96
    25.4200       102
    25.4800        94
    25.5400        88
    25.6000        82
    25.6600        92
    25.7200        82
    25.7800        94
    25.8400        94
    25.9000        90
    25.9600        96
    26.0200       112
    26.0800        98
    26.1400       114
    26.2000       100
    26.2600       128
    26.3200       128
    26.3800       130
    26.4400       116
    26.5000       134
    26.5600       130
    26.6200       122
    26.6800       120
    26.7400       136
    26.8000       150
    26.8600       124
    26.9200       130
    26.9800       108
    27.0400       148
    27.1000       146
    27.1600       118
    27.2200       122
    27.2800       104
    27.3400       142
    27.4000       172
    27.4600       186
    27.5200       172
    27.5800       156
    27.6400       116
    27.7000       120
    27.7600       116
    27.8200       114
    27.8800       110
    27.9400       130
    28.0000       134
    28.0600       122
    28.1200       140
    28.1800       150
    28.2400       172
    28.3000       252
    28.3600       264
    28.4200       280
    28.4800       288
    28.5400       240
    28.6000       210
    28.6600       186
    28.7200       214
    28.7800       230
    28.8400       318
    28.9000       300
    28.9600       310
    29.0200       344
    29.0800       384
    29.1400       370
    29.2000       434
    29.2600       424
    29.3200       444
    29.3800       402
    29.4400       396
    29.5000       286
    29.5600       250
    29.6200       210
    29.6800       178
    29.7400       184
    29.8000       164
    29.8600       104
    29.9200       108
    29.9800       106
    30.0400       110
    30.1000       134
    30.1600       144
    30.2200       150
    30.2800       132
    30.3400       104
    30.4000        88
    30.4600        74
    30.5200        86
    30.5800        76
    30.6400        98
    30.7000        96
    30.7600       110
    30.8200       102
    30.8800        78
    30.9400        78
    31.0000        80
    31.0600        68
    31.1200        98
    31.1800        80
    31.2400        62
    31.3000        68
    31.3600        72
    31.4200       114
    31.4800       126
    31.5400       152
    31.6000       158
    31.6600       134
    31.7200       116
    31.7800       126
    31.8400        88
    31.9000        76
    31.9600        66
    32.0200        66
    32.0800        58
    32.1400        60
    32.2000        60
    32.2600        52
    32.3200        76
    32.3800        52
    32.4400        62
    32.5000        70
    32.5600        94
    32.6200        62
    32.6800       106
    32.7400        80
    32.8000        70
    32.8600        94
    32.9200       132
    32.9800       100
    33.0400        76
    33.1000        52
    33.1600        60
    33.2200        64
    33.2800        44
    33.3400        66
    33.4000        82
    33.4600        78
    33.5200        76
    33.5800       102
    33.6400       110
    33.7000       104
    33.7600       138
    33.8200       148
    33.8800       190
    33.9400       172
    34.0000       170
    34.0600       188
    34.1200       160
    34.1800       192
    34.2400       188
    34.3000       216
    34.3600       194
    34.4200       220
    34.4800       182
    34.5400       210
    34.6000       224
    34.6600       198
    34.7200       198
    34.7800       214
    34.8400       214
    34.9000       196
    34.9600       208
    35.0200       188
    35.0800       178
    35.1400       196
    35.2000       244
    35.2600       218
    35.3200       178
    35.3800       222
    35.4400       194
    35.5000       206
    35.5600       196
    35.6200       198
    35.6800       194
    35.7400       186
    35.8000       184
    35.8600       172
    35.9200       200
    35.9800       174
    36.0400       204
    36.1000       182
    36.1600       168
    36.2200       184
    36.2800       164
    36.3400       168
    36.4000       154
    36.4600       138
    36.5200       146
    36.5800       138
    36.6400       140
    36.7000       130
    36.7600       124
    36.8200       142
    36.8800       136
    36.9400       122
    37.0000       122
    37.0600       126
    37.1200       120
    37.1800       106
    37.2400       138
    37.3000       138
    37.3600       128
    37.4200       126
    37.4800       116
    37.5400       130
    37.6000       128
    37.6600       132
    37.7200       124
    37.7800       114
    37.8400       108
    37.9000       114
    37.9600       122
    38.0200       110
    38.0800       112
    38.1400       128
    38.2000       110
    38.2600       114
    38.3200       114
    38.3800       114
    38.4400       128
    38.5000       104
    38.5600       132
    38.6200       112
    38.6800       116
    38.7400       110
    38.8000       126
    38.8600       104
    38.9200       126
    38.9800       128
    39.0400       130
    39.1000       114
    39.1600       114
    39.2200       110
    39.2800       128
    39.3400       110
    39.4000       104
    39.4600       118
    39.5200       108
    39.5800       108
    39.6400       110
    39.7000       116
    39.7600       106
    39.8200        90
    39.8800       100
    39.9400       100
    40.0000        96
    40.0600        84
    40.1200        90
    40.1800        94
    40.2400        86
    40.3000        74
    40.3600        80
    40.4200        90
    40.4800        86
    40.5400        88
    40.6000        74
    40.6600        86
    40.7200        84
    40.7800        92
    40.8400        92
    40.9000       104
    40.9600        80
    41.0200        92
    41.0800        80
    41.1400        84
    41.2000        74
    41.2600        76
    41.3200       102
    41.3800        84
    41.4400        84
    41.5000        92
    41.5600        92
    41.6200        82
    41.6800       108
    41.7400       112
    41.8000       118
    41.8600        88
    41.9200        90
    41.9800        96
    42.0400        84
    42.1000        94
    42.1600        90
    42.2200       122
    42.2800       116
    42.3400       102
    42.4000        86
    42.4600        72
    42.5200        92
    42.5800        66
    42.6400        88
    42.7000        84
    42.7600        92
    42.8200        86
    42.8800        66
    42.9400        72
    43.0000        74
    43.0600        68
    43.1200        70
    43.1800        74
    43.2400        56
    43.3000        68
    43.3600        66
    43.4200        56
    43.4800        84
    43.5400        72
    43.6000        78
    43.6600        74
    43.7200        82
    43.7800        70
    43.8400        76
    43.9000        74
    43.9600        74
    44.0200        80
    44.0800        68
    44.1400       100
    44.2000        80
    44.2600       106
    44.3200       106
    44.3800        96
    44.4400        88
    44.5000        84
    44.5600        88
    44.6200        96
    44.6800        96
    44.7400        84
    44.8000        78
    44.8600        86
    44.9200       102
    44.9800        82
    45.0400        94
    45.1000        90
    45.1600        78
    45.2200        86
    45.2800       116
    45.3400       138
    45.4000       124
    45.4600       112
    45.5200        96
    45.5800        80
    45.6400        86
    45.7000        82
    45.7600        72
    45.8200        54
    45.8800        66
    45.9400        56
    46.0000        72
    46.0600        64
    46.1200        54
    46.1800        50
    46.2400        50
    46.3000        66
    46.3600        30
    46.4200        60
    46.4800        60
    46.5400        52
    46.6000        52
    46.6600        50
    46.7200        52
    46.7800        62
    46.8400        52
    46.9000        62
    46.9600        46
    47.0200        54
    47.0800        44
    47.1400        50
    47.2000        46
    47.2600        44
    47.3200        54
    47.3800        44
    47.4400        66
    47.5000        44
    47.5600        32
    47.6200        54
    47.6800        42
    47.7400        54
    47.8000        48
    47.8600        64
    47.9200        80
    47.9800        70
    48.0400        64
    48.1000        60
    48.1600        32
    48.2200        52
    48.2800        46
    48.3400        54
    48.4000        54
    48.4600        40
    48.5200        38
    48.5800        60
    48.6400        48
    48.7000        46
    48.7600        54
    48.8200        48
    48.8800        36
    48.9400        42
    49.0000        44
    49.0600        52
    49.1200        42
    49.1800        50
    49.2400        58
    49.3000        50
    49.3600        52
    49.4200        32
    49.4800        42
    49.5400        52
    49.6000        66
    49.6600        54
    49.7200        48
    49.7800        50
    49.8400        38
    49.9000        48
    49.9600        50
    50.0200        64
    50.0800        70
    50.1400        72
    50.2000        68
    50.2600        60
    50.3200        50
    50.3800        52
    50.4400        58
    50.5000        48
    50.5600        36
    50.6200        40
    50.6800        48
    50.7400        40
    50.8000        38
    50.8600        36
    50.9200        62
    50.9800        50
    51.0400        38
    51.1000        46
    51.1600        42
    51.2200        58
    51.2800        40
    51.3400        52
    51.4000        44
    51.4600        52
    51.5200        44
    51.5800        54
    51.6400        52
    51.7000        62
    51.7600        42
    51.8200        50
    51.8800        70
    51.9400        72
    52.0000        88
    52.0600        92
    52.1200        76
    52.1800        86
    52.2400        78
    52.3000        52
    52.3600        82
    52.4200        84
    52.4800        92
    52.5400        82
    52.6000        96
    52.6600        98
    52.7200       104
    52.7800       116
    52.8400        70
    52.9000        86
    52.9600        92
    53.0200        78
    53.0800        90
    53.1400        82
    53.2000        86
    53.2600        76
    53.3200        82
    53.3800        82
    53.4400        88
    53.5000        82
    53.5600        78
    53.6200        78
    53.6800        88
    53.7400        88
    53.8000        64
    53.8600        82
    53.9200        80
    53.9800        62
    54.0400        80
    54.1000        84
    54.1600        54
    54.2200        84
    54.2800        82
    54.3400        92
    54.4000        70
    54.4600        82
    54.5200        68
    54.5800        58
    54.6400        62
    54.7000        70
    54.7600        78
    54.8200        90
    54.8800        72
    54.9400        58
    55.0000        72
    55.0600        80
    55.1200        68
    55.1800        78
    55.2400        74
    55.3000        74
    55.3600        76
    55.4200        74
    55.4800        84
    55.5400        88
    55.6000        96
    55.6600        92
    55.7200        80
    55.7800        76
    55.8400        96
    55.9000        84
    55.9600        76
    56.0200        78
    56.0800        74
    56.1400        68
    56.2000        64
    56.2600        80
    56.3200        82
    56.3800        92
    56.4400        90
    56.5000        90
    56.5600        84
    56.6200        70
    56.6800        86
    56.7400        80
    56.8000        82
    56.8600        74
    56.9200        78
    56.9800        74
    57.0400        68
    57.1000        64
    57.1600        60
    57.2200        56
    57.2800        68
    57.3400        58
    57.4000        70
    57.4600        68
    57.5200        64
    57.5800        60
    57.6400        72
    57.7000        58
    57.7600        48
    57.8200        56
    57.8800        64
    57.9400        86
    58.0000        74
    58.0600        82
    58.1200        84
    58.1800        72
    58.2400        64
    58.3000        78
    58.3600        58
    58.4200        66
    58.4800        58
    58.5400        72
    58.6000        70
    58.6600        66
    58.7200        64
    58.7800        68
    58.8400        74
    58.9000        70
    58.9600        70
    59.0200        58
    59.0800        56
    59.1400        80
    59.2000        62
    59.2600        68
    59.3200        80
    59.3800        56
    59.4400        82
    59.5000        68
    59.5600        76
    59.6200        70
    59.6800        58
    59.7400        86
    59.8000        82
    59.8600        80
    59.9200        76
    59.9800       126
    60.0400       146
    60.1000       176
    60.1600       240
    60.2200       264
    60.2800       270
    60.3400       278
    60.4000       288
    60.4600       230
    60.5200       226
    60.5800       182
    60.6400       204
    60.7000       174
    60.7600       158
    60.8200       124
    60.8800       150
    60.9400       108
    61.0000       114
    61.0600        98
    61.1200        94
    61.1800        94
    61.2400        82
    61.3000        86
    61.3600        96
    61.4200       106
    61.4800        86
    61.5400       102
    61.6000        80
    61.6600       104
    61.7200        96
    61.7800        88
    61.8400        86
    61.9000        78
    61.9600        70
    62.0200        50
    62.0800        64
    62.1400        50
    62.2000        64
    62.2600        68
    62.3200        60
    62.3800        62
    62.4400        50
    62.5000        70
    62.5600        60
    62.6200        62
    62.6800        76
    62.7400        74
    62.8000        58
    62.8600        50
    62.9200        60
    62.9800        64
    63.0400        64
    63.1000        70
    63.1600        72
    63.2200        56
    63.2800        60
    63.3400        66
    63.4000        40
    63.4600        54
    63.5200        78
    63.5800        54
    63.6400        54
    63.7000        56
    63.7600        62
    63.8200        38
    63.8800        52
    63.9400        62
    64.0000        64
    64.0600        54
    64.1200        56
    64.1800        52
    64.2400        68
    64.3000        72
    64.3600        58
    64.4200        48
    64.4800        72
    64.5400        66
    64.6000        84
    64.6600       112
    64.7200        84
    64.7800        68
    64.8400        76
    64.9000        58
    64.9600        56
    65.0000        64