File: sl1/usgs/library06/DESCRIPT/new_xrd_results_to_be_added/Rhonda_Driscoll_xrd_runs/GDS184---Roscoelite.txt
/////////////////////////////////////////////////////////////////////////////////
/// Profile Data Ascii Dump (XRD)                                             ///
/////////////////////////////////////////////////////////////////////////////////

  Group     : Swayze
  Data      : GDS184
  File Name : GDS184.RAW

# Profile Datafile
          comment             = Roscoelite
          date & time         = 08-04-14 09:26:47

# Measurement Condition
    X-ray tube
          target              = Cu
          voltage             = 40.0 (kV)
          current             = 30.0 (mA)
    Slits
          divergence slit     = 2.00000 (deg)
          scatter slit        = 2.00000 (deg)
          receiving slit      = 0.15000 (mm)
    Scanning
          drive axis          = Theta-2Theta
          scan range          =    4.000 -   65.000
          scan mode           = Continuous Scan
          scan speed          =   2.0000 (deg/min)
          sampling pitch      =   0.0200 (deg)
          preset time         =   0.60 (sec)

# Data      [ Total No. = 3051 ]
  <2Theta>   <   I   >
     4.0000       182
     4.0600       202
     4.1200       174
     4.1800       148
     4.2400       198
     4.3000       176
     4.3600       178
     4.4200       158
     4.4800       184
     4.5400       166
     4.6000       182
     4.6600       166
     4.7200       130
     4.7800       168
     4.8400       160
     4.9000       142
     4.9600       164
     5.0200       166
     5.0800       146
     5.1400       144
     5.2000       154
     5.2600       172
     5.3200       146
     5.3800       162
     5.4400       160
     5.5000       182
     5.5600       140
     5.6200       190
     5.6800       154
     5.7400       176
     5.8000       164
     5.8600       192
     5.9200       172
     5.9800       152
     6.0400       174
     6.1000       172
     6.1600       156
     6.2200       196
     6.2800       178
     6.3400       174
     6.4000       158
     6.4600       168
     6.5200       148
     6.5800       152
     6.6400       138
     6.7000       136
     6.7600       124
     6.8200       116
     6.8800       150
     6.9400       120
     7.0000       128
     7.0600       140
     7.1200       124
     7.1800       122
     7.2400       140
     7.3000       122
     7.3600       140
     7.4200       136
     7.4800       132
     7.5400       136
     7.6000       110
     7.6600       130
     7.7200       106
     7.7800       122
     7.8400       118
     7.9000       126
     7.9600       132
     8.0200       136
     8.0800       118
     8.1400       134
     8.2000       120
     8.2600       158
     8.3200       162
     8.3800       182
     8.4400       246
     8.5000       252
     8.5600       314
     8.6200       374
     8.6800       494
     8.7400       870
     8.8000      1580
     8.8600      2310
     8.9200       964
     8.9800       308
     9.0400       176
     9.1000       152
     9.1600       142
     9.2200       110
     9.2800       116
     9.3400       104
     9.4000       104
     9.4600       122
     9.5200        94
     9.5800       126
     9.6400        98
     9.7000       110
     9.7600       120
     9.8200       104
     9.8800       108
     9.9400       108
    10.0000       108
    10.0600       100
    10.1200        96
    10.1800        94
    10.2400        94
    10.3000       106
    10.3600       108
    10.4200        90
    10.4800        98
    10.5400       106
    10.6000        92
    10.6600       100
    10.7200        94
    10.7800        96
    10.8400        82
    10.9000        88
    10.9600        76
    11.0200       110
    11.0800        76
    11.1400        86
    11.2000        96
    11.2600        96
    11.3200        84
    11.3800        72
    11.4400        84
    11.5000       104
    11.5600        78
    11.6200        84
    11.6800        90
    11.7400        72
    11.8000        64
    11.8600        94
    11.9200        76
    11.9800        76
    12.0400        82
    12.1000        78
    12.1600        74
    12.2200        86
    12.2800        74
    12.3400        82
    12.4000        76
    12.4600        70
    12.5200        76
    12.5800        64
    12.6400        76
    12.7000        70
    12.7600        82
    12.8200        82
    12.8800        72
    12.9400        60
    13.0000        74
    13.0600        68
    13.1200        86
    13.1800        64
    13.2400        54
    13.3000        80
    13.3600        62
    13.4200        54
    13.4800        62
    13.5400        70
    13.6000        68
    13.6600        72
    13.7200        62
    13.7800        52
    13.8400        44
    13.9000        56
    13.9600        68
    14.0200        60
    14.0800        60
    14.1400        70
    14.2000        64
    14.2600        68
    14.3200        64
    14.3800        70
    14.4400        60
    14.5000        68
    14.5600        58
    14.6200        64
    14.6800        68
    14.7400        52
    14.8000        58
    14.8600        66
    14.9200        58
    14.9800        44
    15.0400        64
    15.1000        50
    15.1600        54
    15.2200        48
    15.2800        50
    15.3400        64
    15.4000        54
    15.4600        66
    15.5200        58
    15.5800        64
    15.6400        56
    15.7000        58
    15.7600        68
    15.8200        60
    15.8800        48
    15.9400        70
    16.0000        56
    16.0600        60
    16.1200        52
    16.1800        48
    16.2400        46
    16.3000        52
    16.3600        46
    16.4200        48
    16.4800        56
    16.5400        58
    16.6000        46
    16.6600        64
    16.7200        54
    16.7800        44
    16.8400        54
    16.9000        50
    16.9600        46
    17.0200        60
    17.0800        46
    17.1400        46
    17.2000        40
    17.2600        56
    17.3200        56
    17.3800        52
    17.4400        56
    17.5000        46
    17.5600        66
    17.6200        76
    17.6800       126
    17.7400       168
    17.8000        92
    17.8600        78
    17.9200        64
    17.9800        52
    18.0400        58
    18.1000        70
    18.1600        48
    18.2200        46
    18.2800        58
    18.3400        52
    18.4000        50
    18.4600        44
    18.5200        56
    18.5800        58
    18.6400        46
    18.7000        64
    18.7600        52
    18.8200        62
    18.8800        66
    18.9400        50
    19.0000        46
    19.0600        58
    19.1200        42
    19.1800        64
    19.2400        56
    19.3000        58
    19.3600        70
    19.4200        70
    19.4800        78
    19.5400        80
    19.6000        70
    19.6600        70
    19.7200        58
    19.7800        52
    19.8400        54
    19.9000        46
    19.9600        60
    20.0200        52
    20.0800        52
    20.1400        64
    20.2000        92
    20.2600        84
    20.3200        50
    20.3800        66
    20.4400        42
    20.5000        44
    20.5600        54
    20.6200        44
    20.6800        42
    20.7400        48
    20.8000        60
    20.8600        62
    20.9200        68
    20.9800        50
    21.0400        56
    21.1000        58
    21.1600        40
    21.2200        48
    21.2800        48
    21.3400        56
    21.4000        64
    21.4600        72
    21.5200        70
    21.5800        38
    21.6400        48
    21.7000        44
    21.7600        44
    21.8200        60
    21.8800        48
    21.9400        48
    22.0000        54
    22.0600        48
    22.1200        46
    22.1800        48
    22.2400        40
    22.3000        52
    22.3600        36
    22.4200        52
    22.4800        50
    22.5400        54
    22.6000        74
    22.6600        68
    22.7200        54
    22.7800        62
    22.8400        58
    22.9000        74
    22.9600        52
    23.0200        62
    23.0800        62
    23.1400        52
    23.2000        50
    23.2600        72
    23.3200        82
    23.3800        74
    23.4400        92
    23.5000        84
    23.5600        66
    23.6200        56
    23.6800        58
    23.7400        56
    23.8000        58
    23.8600        50
    23.9200        56
    23.9800        68
    24.0400        84
    24.1000        74
    24.1600       112
    24.2200        98
    24.2800       100
    24.3400        90
    24.4000        94
    24.4600        72
    24.5200        68
    24.5800        64
    24.6400        46
    24.7000        56
    24.7600        52
    24.8200        42
    24.8800        60
    24.9400        60
    25.0000        56
    25.0600        62
    25.1200        64
    25.1800        60
    25.2400        54
    25.3000        66
    25.3600        74
    25.4200        54
    25.4800        72
    25.5400        80
    25.6000        68
    25.6600        86
    25.7200        58
    25.7800        58
    25.8400        78
    25.9000        80
    25.9600        80
    26.0200        68
    26.0800        76
    26.1400       100
    26.2000       106
    26.2600       120
    26.3200       140
    26.3800       268
    26.4400       370
    26.5000       522
    26.5600       996
    26.6200      2128
    26.6800      3626
    26.7400      3668
    26.8000      2120
    26.8600       740
    26.9200       282
    26.9800       158
    27.0400       124
    27.1000        76
    27.1600        64
    27.2200        70
    27.2800        64
    27.3400        62
    27.4000        68
    27.4600        78
    27.5200        76
    27.5800        80
    27.6400        64
    27.7000        56
    27.7600        72
    27.8200        56
    27.8800        74
    27.9400        78
    28.0000        52
    28.0600        64
    28.1200        64
    28.1800        64
    28.2400        60
    28.3000        54
    28.3600        56
    28.4200        68
    28.4800        86
    28.5400        92
    28.6000        94
    28.6600       124
    28.7200       120
    28.7800       124
    28.8400        88
    28.9000        64
    28.9600        70
    29.0200        64
    29.0800        46
    29.1400        48
    29.2000        44
    29.2600        36
    29.3200        54
    29.3800        52
    29.4400        52
    29.5000        46
    29.5600        34
    29.6200        44
    29.6800        44
    29.7400        48
    29.8000        46
    29.8600        34
    29.9200        48
    29.9800        66
    30.0400        42
    30.1000        58
    30.1600        50
    30.2200        54
    30.2800        48
    30.3400        50
    30.4000        52
    30.4600        60
    30.5200        66
    30.5800        96
    30.6400       118
    30.7000       106
    30.7600        94
    30.8200        84
    30.8800        64
    30.9400        40
    31.0000        40
    31.0600        44
    31.1200        50
    31.1800        38
    31.2400        50
    31.3000        30
    31.3600        32
    31.4200        52
    31.4800        38
    31.5400        38
    31.6000        38
    31.6600        42
    31.7200        38
    31.7800        38
    31.8400        40
    31.9000        46
    31.9600        56
    32.0200        62
    32.0800        56
    32.1400        40
    32.2000        36
    32.2600        42
    32.3200        34
    32.3800        36
    32.4400        42
    32.5000        42
    32.5600        40
    32.6200        38
    32.6800        42
    32.7400        40
    32.8000        50
    32.8600        44
    32.9200        40
    32.9800        48
    33.0400        66
    33.1000        80
    33.1600       100
    33.2200       158
    33.2800       166
    33.3400       146
    33.4000       100
    33.4600        76
    33.5200        56
    33.5800        46
    33.6400        34
    33.7000        44
    33.7600        36
    33.8200        56
    33.8800        58
    33.9400        70
    34.0000        94
    34.0600        86
    34.1200        54
    34.1800        44
    34.2400        60
    34.3000        70
    34.3600        56
    34.4200        92
    34.4800        78
    34.5400        92
    34.6000        56
    34.6600        60
    34.7200        54
    34.7800        60
    34.8400        44
    34.9000        42
    34.9600        38
    35.0200        58
    35.0800        44
    35.1400        42
    35.2000        28
    35.2600        56
    35.3200        56
    35.3800        52
    35.4400        58
    35.5000        40
    35.5600        78
    35.6200        74
    35.6800        80
    35.7400       124
    35.8000       226
    35.8600       386
    35.9200       344
    35.9800       244
    36.0400       116
    36.1000        62
    36.1600        64
    36.2200        38
    36.2800        38
    36.3400        56
    36.4000        52
    36.4600        66
    36.5200       104
    36.5800        84
    36.6400        80
    36.7000        56
    36.7600        52
    36.8200        38
    36.8800        50
    36.9400        52
    37.0000        50
    37.0600        48
    37.1200        68
    37.1800        56
    37.2400        70
    37.3000        44
    37.3600        44
    37.4200        50
    37.4800        42
    37.5400        44
    37.6000        30
    37.6600        28
    37.7200        34
    37.7800        40
    37.8400        32
    37.9000        48
    37.9600        42
    38.0200        42
    38.0800        52
    38.1400        42
    38.2000        36
    38.2600        60
    38.3200        42
    38.3800        42
    38.4400        40
    38.5000        32
    38.5600        32
    38.6200        48
    38.6800        40
    38.7400        40
    38.8000        34
    38.8600        22
    38.9200        26
    38.9800        30
    39.0400        28
    39.1000        28
    39.1600        28
    39.2200        34
    39.2800        38
    39.3400        40
    39.4000        44
    39.4600        56
    39.5200        48
    39.5800        52
    39.6400        60
    39.7000        40
    39.7600        34
    39.8200        40
    39.8800        36
    39.9400        46
    40.0000        36
    40.0600        40
    40.1200        28
    40.1800        30
    40.2400        44
    40.3000        44
    40.3600        44
    40.4200        42
    40.4800        46
    40.5400        38
    40.6000        52
    40.6600        48
    40.7200        58
    40.7800        56
    40.8400        38
    40.9000        44
    40.9600        52
    41.0200        46
    41.0800        56
    41.1400        40
    41.2000        62
    41.2600        56
    41.3200        58
    41.3800        46
    41.4400        36
    41.5000        38
    41.5600        44
    41.6200        52
    41.6800        54
    41.7400        60
    41.8000        66
    41.8600        62
    41.9200        46
    41.9800        38
    42.0400        42
    42.1000        44
    42.1600        44
    42.2200        40
    42.2800        40
    42.3400        34
    42.4000        42
    42.4600        44
    42.5200        46
    42.5800        58
    42.6400        38
    42.7000        36
    42.7600        26
    42.8200        32
    42.8800        30
    42.9400        26
    43.0000        26
    43.0600        30
    43.1200        38
    43.1800        36
    43.2400        26
    43.3000        32
    43.3600        34
    43.4200        36
    43.4800        26
    43.5400        30
    43.6000        30
    43.6600        30
    43.7200        28
    43.7800        26
    43.8400        30
    43.9000        36
    43.9600        32
    44.0200        26
    44.0800        32
    44.1400        28
    44.2000        26
    44.2600        28
    44.3200        30
    44.3800        30
    44.4400        34
    44.5000        30
    44.5600        36
    44.6200        40
    44.6800        34
    44.7400        36
    44.8000        50
    44.8600        46
    44.9200        74
    44.9800        76
    45.0400        96
    45.1000       142
    45.1600       316
    45.2200       642
    45.2800       862
    45.3400       752
    45.4000       564
    45.4600       332
    45.5200       166
    45.5800       114
    45.6400        76
    45.7000        62
    45.7600        60
    45.8200        52
    45.8800        52
    45.9400        38
    46.0000        40
    46.0600        48
    46.1200        40
    46.1800        40
    46.2400        42
    46.3000        24
    46.3600        30
    46.4200        44
    46.4800        44
    46.5400        42
    46.6000        44
    46.6600        40
    46.7200        38
    46.7800        40
    46.8400        28
    46.9000        36
    46.9600        40
    47.0200        30
    47.0800        24
    47.1400        30
    47.2000        34
    47.2600        32
    47.3200        26
    47.3800        34
    47.4400        34
    47.5000        20
    47.5600        28
    47.6200        26
    47.6800        32
    47.7400        28
    47.8000        32
    47.8600        18
    47.9200        34
    47.9800        36
    48.0400        30
    48.1000        30
    48.1600        42
    48.2200        18
    48.2800        32
    48.3400        26
    48.4000        24
    48.4600        32
    48.5200        24
    48.5800        26
    48.6400        26
    48.7000        26
    48.7600        36
    48.8200        34
    48.8800        30
    48.9400        36
    49.0000        28
    49.0600        26
    49.1200        38
    49.1800        26
    49.2400        30
    49.3000        30
    49.3600        20
    49.4200        24
    49.4800        38
    49.5400        26
    49.6000        38
    49.6600        42
    49.7200        32
    49.7800        22
    49.8400        32
    49.9000        34
    49.9600        38
    50.0200        44
    50.0800        70
    50.1400        64
    50.2000        44
    50.2600        50
    50.3200        30
    50.3800        28
    50.4400        36
    50.5000        36
    50.5600        24
    50.6200        28
    50.6800        24
    50.7400        34
    50.8000        34
    50.8600        26
    50.9200        30
    50.9800        18
    51.0400        28
    51.1000        20
    51.1600        26
    51.2200        26
    51.2800        24
    51.3400        22
    51.4000        26
    51.4600        22
    51.5200        28
    51.5800        14
    51.6400        40
    51.7000        18
    51.7600        38
    51.8200        22
    51.8800        20
    51.9400        18
    52.0000        22
    52.0600        30
    52.1200        28
    52.1800        22
    52.2400        34
    52.3000        28
    52.3600        28
    52.4200        36
    52.4800        44
    52.5400        26
    52.6000        28
    52.6600        32
    52.7200        24
    52.7800        36
    52.8400        40
    52.9000        34
    52.9600        32
    53.0200        26
    53.0800        42
    53.1400        46
    53.2000        38
    53.2600        30
    53.3200        28
    53.3800        36
    53.4400        40
    53.5000        24
    53.5600        40
    53.6200        32
    53.6800        28
    53.7400        38
    53.8000        40
    53.8600        40
    53.9200        44
    53.9800        46
    54.0400        26
    54.1000        40
    54.1600        42
    54.2200        36
    54.2800        46
    54.3400        44
    54.4000        42
    54.4600        50
    54.5200        58
    54.5800        50
    54.6400        64
    54.7000        60
    54.7600        48
    54.8200        78
    54.8800        98
    54.9400       148
    55.0000       188
    55.0600       194
    55.1200       156
    55.1800       114
    55.2400        78
    55.3000        74
    55.3600        72
    55.4200        56
    55.4800        46
    55.5400        62
    55.6000        64
    55.6600        68
    55.7200        50
    55.7800        40
    55.8400        34
    55.9000        40
    55.9600        30
    56.0200        36
    56.0800        34
    56.1400        30
    56.2000        34
    56.2600        28
    56.3200        46
    56.3800        28
    56.4400        30
    56.5000        30
    56.5600        28
    56.6200        34
    56.6800        24
    56.7400        30
    56.8000        38
    56.8600        32
    56.9200        36
    56.9800        32
    57.0400        34
    57.1000        22
    57.1600        28
    57.2200        22
    57.2800        22
    57.3400        26
    57.4000        50
    57.4600        44
    57.5200        46
    57.5800        56
    57.6400        38
    57.7000        50
    57.7600        48
    57.8200        40
    57.8800        42
    57.9400        32
    58.0000        30
    58.0600        36
    58.1200        28
    58.1800        24
    58.2400        22
    58.3000        34
    58.3600        42
    58.4200        46
    58.4800        36
    58.5400        28
    58.6000        34
    58.6600        30
    58.7200        22
    58.7800        30
    58.8400        34
    58.9000        30
    58.9600        28
    59.0200        34
    59.0800        34
    59.1400        36
    59.2000        28
    59.2600        32
    59.3200        36
    59.3800        36
    59.4400        28
    59.5000        32
    59.5600        34
    59.6200        46
    59.6800        32
    59.7400        38
    59.8000        44
    59.8600        38
    59.9200        56
    59.9800        60
    60.0400        46
    60.1000        58
    60.1600        44
    60.2200        38
    60.2800        44
    60.3400        30
    60.4000        46
    60.4600        52
    60.5200        40
    60.5800        56
    60.6400        48
    60.7000        62
    60.7600        56
    60.8200        70
    60.8800        58
    60.9400        70
    61.0000        60
    61.0600        58
    61.1200        52
    61.1800        58
    61.2400        58
    61.3000        42
    61.3600        34
    61.4200        44
    61.4800        38
    61.5400        38
    61.6000        42
    61.6600        30
    61.7200        32
    61.7800        36
    61.8400        46
    61.9000        28
    61.9600        40
    62.0200        50
    62.0800        52
    62.1400        36
    62.2000        48
    62.2600        42
    62.3200        48
    62.3800        48
    62.4400        56
    62.5000        46
    62.5600        36
    62.6200        28
    62.6800        44
    62.7400        38
    62.8000        32
    62.8600        30
    62.9200        26
    62.9800        24
    63.0400        46
    63.1000        32
    63.1600        24
    63.2200        36
    63.2800        24
    63.3400        22
    63.4000        34
    63.4600        28
    63.5200        38
    63.5800        36
    63.6400        44
    63.7000        32
    63.7600        36
    63.8200        40
    63.8800        46
    63.9400        42
    64.0000        40
    64.0600        30
    64.1200        22
    64.1800        30
    64.2400        34
    64.3000        34
    64.3600        30
    64.4200        30
    64.4800        22
    64.5400        26
    64.6000        34
    64.6600        32
    64.7200        30
    64.7800        30
    64.8400        32
    64.9000        38
    64.9600        36
    65.0000        52