File: sl1/usgs/library06/DESCRIPT/new_xrd_results_to_be_added/Rhonda_Driscoll_xrd_runs/GDS182-Penninite.txt
/////////////////////////////////////////////////////////////////////////////////
/// Profile Data Ascii Dump (XRD)                                             ///
/////////////////////////////////////////////////////////////////////////////////

  Group     : Swayze
  Data      : GDS182
  File Name : GDS182.RAW

# Profile Datafile
          comment             = Penninite
          date & time         = 08-04-28 07:49:23

# Measurement Condition
    X-ray tube
          target              = Cu
          voltage             = 40.0 (kV)
          current             = 30.0 (mA)
    Slits
          divergence slit     = 2.00000 (deg)
          scatter slit        = 2.00000 (deg)
          receiving slit      = 0.15000 (mm)
    Scanning
          drive axis          = Theta-2Theta
          scan range          =    4.000 -   65.000
          scan mode           = Continuous Scan
          scan speed          =   2.0000 (deg/min)
          sampling pitch      =   0.0200 (deg)
          preset time         =   0.60 (sec)

# Data      [ Total No. = 3051 ]
  <2Theta>   <   I   >
     4.0000       192
     4.0600       214
     4.1200       198
     4.1800       208
     4.2400       192
     4.3000       220
     4.3600       200
     4.4200       200
     4.4800       202
     4.5400       168
     4.6000       170
     4.6600       182
     4.7200       186
     4.7800       200
     4.8400       168
     4.9000       168
     4.9600       158
     5.0200       190
     5.0800       184
     5.1400       170
     5.2000       182
     5.2600       194
     5.3200       188
     5.3800       200
     5.4400       208
     5.5000       218
     5.5600       204
     5.6200       226
     5.6800       264
     5.7400       258
     5.8000       316
     5.8600       390
     5.9200       458
     5.9800       636
     6.0400       990
     6.1000      1654
     6.1600      2170
     6.2200       990
     6.2800       326
     6.3400       230
     6.4000       190
     6.4600       192
     6.5200       148
     6.5800       158
     6.6400       164
     6.7000       136
     6.7600       126
     6.8200       142
     6.8800       134
     6.9400       132
     7.0000       120
     7.0600       136
     7.1200       114
     7.1800       124
     7.2400       130
     7.3000       132
     7.3600       114
     7.4200       114
     7.4800       120
     7.5400        92
     7.6000       126
     7.6600       120
     7.7200       116
     7.7800       116
     7.8400       112
     7.9000        92
     7.9600       126
     8.0200       104
     8.0800       104
     8.1400       114
     8.2000       126
     8.2600       110
     8.3200       118
     8.3800       144
     8.4400        98
     8.5000       106
     8.5600       124
     8.6200       116
     8.6800       102
     8.7400       114
     8.8000       108
     8.8600       114
     8.9200       118
     8.9800       126
     9.0400       100
     9.1000       100
     9.1600       122
     9.2200       114
     9.2800       114
     9.3400       122
     9.4000       128
     9.4600       108
     9.5200       112
     9.5800       110
     9.6400       100
     9.7000       126
     9.7600       110
     9.8200       118
     9.8800       118
     9.9400       106
    10.0000       102
    10.0600       108
    10.1200        98
    10.1800        96
    10.2400       104
    10.3000       116
    10.3600       102
    10.4200        84
    10.4800       116
    10.5400       114
    10.6000       106
    10.6600        98
    10.7200       100
    10.7800        92
    10.8400       112
    10.9000       102
    10.9600       106
    11.0200       100
    11.0800       124
    11.1400       148
    11.2000       118
    11.2600       104
    11.3200        94
    11.3800       116
    11.4400       100
    11.5000       108
    11.5600       146
    11.6200       146
    11.6800       158
    11.7400       152
    11.8000       252
    11.8600       252
    11.9200       406
    11.9800       548
    12.0400       658
    12.1000       934
    12.1600      1486
    12.2200      2526
    12.2800      4864
    12.3400      7378
    12.4000      3504
    12.4600       894
    12.5200       402
    12.5800       244
    12.6400       188
    12.7000       126
    12.7600       110
    12.8200       100
    12.8800       110
    12.9400        90
    13.0000        90
    13.0600        92
    13.1200        90
    13.1800        90
    13.2400        74
    13.3000        84
    13.3600        78
    13.4200        64
    13.4800        78
    13.5400        76
    13.6000        82
    13.6600        66
    13.7200        58
    13.7800        76
    13.8400        60
    13.9000        74
    13.9600        52
    14.0200        78
    14.0800        48
    14.1400        64
    14.2000        68
    14.2600        74
    14.3200        48
    14.3800        74
    14.4400        58
    14.5000        82
    14.5600        66
    14.6200        64
    14.6800        46
    14.7400        58
    14.8000        48
    14.8600        62
    14.9200        62
    14.9800        70
    15.0400        74
    15.1000        76
    15.1600        74
    15.2200        68
    15.2800        66
    15.3400        68
    15.4000        66
    15.4600        70
    15.5200        40
    15.5800        76
    15.6400        74
    15.7000        60
    15.7600        62
    15.8200        46
    15.8800        80
    15.9400        70
    16.0000        66
    16.0600        62
    16.1200        66
    16.1800        56
    16.2400        68
    16.3000        44
    16.3600        72
    16.4200        62
    16.4800        68
    16.5400        68
    16.6000        62
    16.6600        68
    16.7200        72
    16.7800       104
    16.8400        82
    16.9000        78
    16.9600        80
    17.0200        64
    17.0800        66
    17.1400        62
    17.2000        68
    17.2600        68
    17.3200        68
    17.3800        92
    17.4400        62
    17.5000        82
    17.5600        84
    17.6200        76
    17.6800       102
    17.7400       116
    17.8000       120
    17.8600       102
    17.9200       130
    17.9800       152
    18.0400       182
    18.1000       236
    18.1600       382
    18.2200       510
    18.2800       678
    18.3400      1190
    18.4000      1934
    18.4600      4000
    18.5200      8148
    18.5800      9362
    18.6400      4118
    18.7000      1054
    18.7600       474
    18.8200       328
    18.8800       192
    18.9400       160
    19.0000       124
    19.0600       120
    19.1200       100
    19.1800       112
    19.2400       116
    19.3000       120
    19.3600       104
    19.4200        84
    19.4800        72
    19.5400        88
    19.6000        64
    19.6600        92
    19.7200        68
    19.7800        82
    19.8400        80
    19.9000        78
    19.9600        70
    20.0200        80
    20.0800        56
    20.1400        54
    20.2000        80
    20.2600        68
    20.3200        64
    20.3800        80
    20.4400        64
    20.5000        56
    20.5600        58
    20.6200        56
    20.6800        80
    20.7400        72
    20.8000        58
    20.8600        64
    20.9200        64
    20.9800        60
    21.0400        50
    21.1000        68
    21.1600        66
    21.2200        50
    21.2800        52
    21.3400        58
    21.4000        70
    21.4600        60
    21.5200        52
    21.5800        64
    21.6400        68
    21.7000        60
    21.7600        64
    21.8200        60
    21.8800        48
    21.9400        66
    22.0000        62
    22.0600        52
    22.1200        66
    22.1800        54
    22.2400        98
    22.3000        96
    22.3600        82
    22.4200        88
    22.4800        46
    22.5400        76
    22.6000        64
    22.6600        68
    22.7200        68
    22.7800        44
    22.8400        60
    22.9000        74
    22.9600        72
    23.0200        68
    23.0800        80
    23.1400        60
    23.2000        66
    23.2600        66
    23.3200        72
    23.3800        74
    23.4400        64
    23.5000        68
    23.5600        76
    23.6200        92
    23.6800       108
    23.7400       106
    23.8000       116
    23.8600       116
    23.9200       114
    23.9800       120
    24.0400       104
    24.1000       102
    24.1600       124
    24.2200       124
    24.2800       168
    24.3400       180
    24.4000       278
    24.4600       394
    24.5200       564
    24.5800       820
    24.6400      1446
    24.7000      2862
    24.7600      6480
    24.8200     12242
    24.8800     10366
    24.9400      4520
    25.0000      1232
    25.0600       558
    25.1200       354
    25.1800       226
    25.2400       160
    25.3000       126
    25.3600       140
    25.4200       108
    25.4800       106
    25.5400        90
    25.6000        76
    25.6600        82
    25.7200        72
    25.7800        64
    25.8400        64
    25.9000        58
    25.9600        64
    26.0200        48
    26.0800        56
    26.1400        72
    26.2000        52
    26.2600        66
    26.3200        74
    26.3800        54
    26.4400        60
    26.5000        56
    26.5600        42
    26.6200        42
    26.6800        58
    26.7400        60
    26.8000        50
    26.8600        36
    26.9200        34
    26.9800        60
    27.0400        50
    27.1000        54
    27.1600        60
    27.2200        34
    27.2800        48
    27.3400        56
    27.4000        48
    27.4600        48
    27.5200        54
    27.5800        40
    27.6400        50
    27.7000        46
    27.7600        46
    27.8200        34
    27.8800        50
    27.9400        60
    28.0000        54
    28.0600        52
    28.1200        54
    28.1800        40
    28.2400        58
    28.3000        50
    28.3600        44
    28.4200        38
    28.4800        44
    28.5400        38
    28.6000        36
    28.6600        52
    28.7200        38
    28.7800        36
    28.8400        54
    28.9000        38
    28.9600        46
    29.0200        56
    29.0800        38
    29.1400        58
    29.2000        38
    29.2600        36
    29.3200        44
    29.3800        50
    29.4400        52
    29.5000        50
    29.5600        48
    29.6200        54
    29.6800        44
    29.7400        56
    29.8000        58
    29.8600        56
    29.9200        70
    29.9800        64
    30.0400        60
    30.1000        54
    30.1600        56
    30.2200        64
    30.2800        60
    30.3400        56
    30.4000        54
    30.4600        52
    30.5200        60
    30.5800        68
    30.6400        82
    30.7000        88
    30.7600       108
    30.8200       142
    30.8800       214
    30.9400       272
    31.0000       476
    31.0600       986
    31.1200      2340
    31.1800      4278
    31.2400      3692
    31.3000      1938
    31.3600       662
    31.4200       250
    31.4800       138
    31.5400       108
    31.6000        66
    31.6600        76
    31.7200        68
    31.7800        66
    31.8400        48
    31.9000        42
    31.9600        64
    32.0200        56
    32.0800        40
    32.1400        50
    32.2000        50
    32.2600        34
    32.3200        46
    32.3800        46
    32.4400        42
    32.5000        36
    32.5600        48
    32.6200        40
    32.6800        32
    32.7400        36
    32.8000        46
    32.8600        40
    32.9200        38
    32.9800        30
    33.0400        28
    33.1000        44
    33.1600        36
    33.2200        30
    33.2800        44
    33.3400        32
    33.4000        30
    33.4600        40
    33.5200        38
    33.5800        50
    33.6400        40
    33.7000        20
    33.7600        36
    33.8200        38
    33.8800        42
    33.9400        40
    34.0000        48
    34.0600        40
    34.1200        44
    34.1800        48
    34.2400        46
    34.3000        46
    34.3600        38
    34.4200        60
    34.4800        64
    34.5400        70
    34.6000        72
    34.6600        96
    34.7200        82
    34.7800        56
    34.8400        74
    34.9000        66
    34.9600        78
    35.0200        64
    35.0800       110
    35.1400       110
    35.2000       110
    35.2600       126
    35.3200        86
    35.3800        62
    35.4400        58
    35.5000        56
    35.5600        42
    35.6200        56
    35.6800        44
    35.7400        40
    35.8000        50
    35.8600        32
    35.9200        46
    35.9800        34
    36.0400        42
    36.1000        46
    36.1600        48
    36.2200        44
    36.2800        44
    36.3400        46
    36.4000        68
    36.4600        68
    36.5200        78
    36.5800        96
    36.6400       110
    36.7000       120
    36.7600       102
    36.8200        66
    36.8800        66
    36.9400        64
    37.0000        48
    37.0600        50
    37.1200        48
    37.1800        52
    37.2400        54
    37.3000        56
    37.3600        48
    37.4200        48
    37.4800        72
    37.5400        88
    37.6000       162
    37.6600       188
    37.7200       158
    37.7800       114
    37.8400        80
    37.9000        54
    37.9600        42
    38.0200        56
    38.0800        42
    38.1400        40
    38.2000        44
    38.2600        44
    38.3200        54
    38.3800        44
    38.4400        44
    38.5000        42
    38.5600        36
    38.6200        32
    38.6800        46
    38.7400        36
    38.8000        38
    38.8600        44
    38.9200        34
    38.9800        38
    39.0400        34
    39.1000        38
    39.1600        50
    39.2200        38
    39.2800        34
    39.3400        32
    39.4000        46
    39.4600        50
    39.5200        42
    39.5800        46
    39.6400        62
    39.7000        86
    39.7600        70
    39.8200        66
    39.8800        60
    39.9400        54
    40.0000        40
    40.0600        40
    40.1200        32
    40.1800        38
    40.2400        42
    40.3000        30
    40.3600        36
    40.4200        34
    40.4800        24
    40.5400        30
    40.6000        32
    40.6600        24
    40.7200        32
    40.7800        40
    40.8400        60
    40.9000        34
    40.9600        28
    41.0200        40
    41.0800        42
    41.1400        24
    41.2000        24
    41.2600        38
    41.3200        26
    41.3800        26
    41.4400        38
    41.5000        42
    41.5600        22
    41.6200        30
    41.6800        32
    41.7400        36
    41.8000        32
    41.8600        28
    41.9200        38
    41.9800        30
    42.0400        32
    42.1000        34
    42.1600        30
    42.2200        30
    42.2800        30
    42.3400        38
    42.4000        44
    42.4600        28
    42.5200        38
    42.5800        36
    42.6400        28
    42.7000        36
    42.7600        40
    42.8200        28
    42.8800        36
    42.9400        32
    43.0000        44
    43.0600        40
    43.1200        42
    43.1800        34
    43.2400        46
    43.3000        42
    43.3600        46
    43.4200        44
    43.4800        50
    43.5400        46
    43.6000        56
    43.6600        56
    43.7200        48
    43.7800        50
    43.8400        54
    43.9000        70
    43.9600        80
    44.0200       100
    44.0800       216
    44.1400       458
    44.2000      1022
    44.2600      1148
    44.3200       850
    44.3800       564
    44.4400       240
    44.5000       104
    44.5600       102
    44.6200        76
    44.6800        60
    44.7400        72
    44.8000        70
    44.8600       106
    44.9200       104
    44.9800       136
    45.0400       120
    45.1000       118
    45.1600        78
    45.2200        80
    45.2800        68
    45.3400        54
    45.4000        56
    45.4600        38
    45.5200        48
    45.5800        56
    45.6400        46
    45.7000        32
    45.7600        48
    45.8200        40
    45.8800        42
    45.9400        26
    46.0000        44
    46.0600        42
    46.1200        40
    46.1800        34
    46.2400        26
    46.3000        42
    46.3600        22
    46.4200        30
    46.4800        22
    46.5400        24
    46.6000        38
    46.6600        38
    46.7200        32
    46.7800        34
    46.8400        24
    46.9000        34
    46.9600        22
    47.0200        26
    47.0800        34
    47.1400        34
    47.2000        38
    47.2600        26
    47.3200        42
    47.3800        28
    47.4400        38
    47.5000        32
    47.5600        34
    47.6200        28
    47.6800        42
    47.7400        36
    47.8000        22
    47.8600        44
    47.9200        38
    47.9800        52
    48.0400        66
    48.1000        52
    48.1600        52
    48.2200        34
    48.2800        48
    48.3400        42
    48.4000        38
    48.4600        34
    48.5200        36
    48.5800        36
    48.6400        32
    48.7000        38
    48.7600        20
    48.8200        38
    48.8800        42
    48.9400        34
    49.0000        34
    49.0600        38
    49.1200        34
    49.1800        34
    49.2400        42
    49.3000        34
    49.3600        34
    49.4200        38
    49.4800        56
    49.5400        52
    49.6000        50
    49.6600        64
    49.7200        60
    49.7800        52
    49.8400        54
    49.9000        46
    49.9600        44
    50.0200        46
    50.0800        36
    50.1400        28
    50.2000        34
    50.2600        34
    50.3200        30
    50.3800        32
    50.4400        36
    50.5000        32
    50.5600        28
    50.6200        28
    50.6800        32
    50.7400        38
    50.8000        40
    50.8600        44
    50.9200        84
    50.9800       112
    51.0400        96
    51.1000       100
    51.1600        72
    51.2200        36
    51.2800        30
    51.3400        38
    51.4000        26
    51.4600        32
    51.5200        32
    51.5800        42
    51.6400        32
    51.7000        28
    51.7600        14
    51.8200        30
    51.8800        32
    51.9400        28
    52.0000        32
    52.0600        44
    52.1200        30
    52.1800        36
    52.2400        32
    52.3000        32
    52.3600        50
    52.4200        32
    52.4800        32
    52.5400        40
    52.6000        42
    52.6600        28
    52.7200        34
    52.7800        28
    52.8400        34
    52.9000        36
    52.9600        20
    53.0200        50
    53.0800        38
    53.1400        40
    53.2000        38
    53.2600        36
    53.3200        34
    53.3800        32
    53.4400        32
    53.5000        38
    53.5600        30
    53.6200        20
    53.6800        32
    53.7400        42
    53.8000        34
    53.8600        34
    53.9200        40
    53.9800        34
    54.0400        40
    54.1000        20
    54.1600        46
    54.2200        40
    54.2800        30
    54.3400        32
    54.4000        36
    54.4600        34
    54.5200        30
    54.5800        42
    54.6400        46
    54.7000        42
    54.7600        46
    54.8200        48
    54.8800        46
    54.9400        46
    55.0000        62
    55.0600        40
    55.1200        38
    55.1800        36
    55.2400        38
    55.3000        40
    55.3600        40
    55.4200        30
    55.4800        32
    55.5400        38
    55.6000        26
    55.6600        28
    55.7200        26
    55.7800        38
    55.8400        36
    55.9000        24
    55.9600        36
    56.0200        36
    56.0800        28
    56.1400        40
    56.2000        32
    56.2600        34
    56.3200        30
    56.3800        40
    56.4400        36
    56.5000        36
    56.5600        26
    56.6200        26
    56.6800        40
    56.7400        36
    56.8000        36
    56.8600        24
    56.9200        34
    56.9800        32
    57.0400        34
    57.1000        34
    57.1600        30
    57.2200        34
    57.2800        42
    57.3400        32
    57.4000        36
    57.4600        38
    57.5200        36
    57.5800        38
    57.6400        40
    57.7000        52
    57.7600        54
    57.8200        96
    57.8800       140
    57.9400       174
    58.0000       168
    58.0600       140
    58.1200       110
    58.1800        80
    58.2400        62
    58.3000        74
    58.3600        70
    58.4200        94
    58.4800       108
    58.5400       106
    58.6000       122
    58.6600       114
    58.7200        80
    58.7800        94
    58.8400        64
    58.9000        70
    58.9600        46
    59.0200        52
    59.0800        42
    59.1400        50
    59.2000        40
    59.2600        36
    59.3200        40
    59.3800        40
    59.4400        36
    59.5000        38
    59.5600        40
    59.6200        30
    59.6800        50
    59.7400        42
    59.8000        38
    59.8600        48
    59.9200        52
    59.9800        66
    60.0400        72
    60.1000        78
    60.1600        86
    60.2200        54
    60.2800        58
    60.3400        48
    60.4000        42
    60.4600        44
    60.5200        42
    60.5800        46
    60.6400        24
    60.7000        42
    60.7600        26
    60.8200        26
    60.8800        30
    60.9400        32
    61.0000        36
    61.0600        32
    61.1200        40
    61.1800        42
    61.2400        36
    61.3000        32
    61.3600        36
    61.4200        38
    61.4800        36
    61.5400        46
    61.6000        46
    61.6600        48
    61.7200        32
    61.7800        46
    61.8400        46
    61.9000        34
    61.9600        32
    62.0200        34
    62.0800        20
    62.1400        32
    62.2000        26
    62.2600        30
    62.3200        40
    62.3800        32
    62.4400        36
    62.5000        32
    62.5600        26
    62.6200        36
    62.6800        24
    62.7400        50
    62.8000        28
    62.8600        40
    62.9200        28
    62.9800        20
    63.0400        28
    63.1000        44
    63.1600        36
    63.2200        32
    63.2800        36
    63.3400        28
    63.4000        32
    63.4600        20
    63.5200        30
    63.5800        36
    63.6400        26
    63.7000        38
    63.7600        36
    63.8200        36
    63.8800        36
    63.9400        40
    64.0000        36
    64.0600        32
    64.1200        32
    64.1800        40
    64.2400        32
    64.3000        38
    64.3600        42
    64.4200        42
    64.4800        38
    64.5400        34
    64.6000        48
    64.6600        48
    64.7200        36
    64.7800        56
    64.8400        66
    64.9000        86
    64.9600       166
    65.0000       266