File: sl1/usgs/library06/DESCRIPT/new_xrd_results_to_be_added/Rhonda_Driscoll_xrd_runs/GDS113-Muscovite.txt
/////////////////////////////////////////////////////////////////////////////////
/// Profile Data Ascii Dump (XRD)                                             ///
/////////////////////////////////////////////////////////////////////////////////

  Group     : Swayze
  Data      : GDS113
  File Name : GDS113.RAW

# Profile Datafile
          comment             = Muscovite
          date & time         = 08-04-09 07:20:19

# Measurement Condition
    X-ray tube
          target              = Cu
          voltage             = 40.0 (kV)
          current             = 30.0 (mA)
    Slits
          divergence slit     = 2.00000 (deg)
          scatter slit        = 2.00000 (deg)
          receiving slit      = 0.15000 (mm)
    Scanning
          drive axis          = Theta-2Theta
          scan range          =    4.000 -   65.000
          scan mode           = Continuous Scan
          scan speed          =   2.0000 (deg/min)
          sampling pitch      =   0.0200 (deg)
          preset time         =   0.60 (sec)

# Data      [ Total No. = 3051 ]
  <2Theta>   <   I   >
     4.0000       200
     4.0600       206
     4.1200       178
     4.1800       198
     4.2400       174
     4.3000       202
     4.3600       170
     4.4200       176
     4.4800       182
     4.5400       178
     4.6000       186
     4.6600       160
     4.7200       158
     4.7800       166
     4.8400       142
     4.9000       158
     4.9600       148
     5.0200       146
     5.0800       160
     5.1400       152
     5.2000       148
     5.2600       164
     5.3200       168
     5.3800       158
     5.4400       160
     5.5000       152
     5.5600       148
     5.6200       174
     5.6800       192
     5.7400       138
     5.8000       148
     5.8600       158
     5.9200       144
     5.9800       142
     6.0400       174
     6.1000       178
     6.1600       164
     6.2200       158
     6.2800       160
     6.3400       160
     6.4000       144
     6.4600       140
     6.5200       168
     6.5800       150
     6.6400       136
     6.7000       120
     6.7600       140
     6.8200       138
     6.8800       144
     6.9400       130
     7.0000       110
     7.0600       134
     7.1200       104
     7.1800       128
     7.2400       106
     7.3000       108
     7.3600       120
     7.4200       128
     7.4800       136
     7.5400       126
     7.6000       142
     7.6600       132
     7.7200       104
     7.7800       118
     7.8400       132
     7.9000       134
     7.9600       116
     8.0200       136
     8.0800       144
     8.1400       158
     8.2000       174
     8.2600       172
     8.3200       186
     8.3800       260
     8.4400       376
     8.5000       488
     8.5600       616
     8.6200       952
     8.6800      1684
     8.7400      4162
     8.8000     10254
     8.8600      4240
     8.9200       670
     8.9800       316
     9.0400       246
     9.1000       186
     9.1600       120
     9.2200       128
     9.2800       136
     9.3400       100
     9.4000       130
     9.4600       106
     9.5200       110
     9.5800        84
     9.6400       114
     9.7000       106
     9.7600        98
     9.8200       112
     9.8800        84
     9.9400       118
    10.0000       106
    10.0600       106
    10.1200       104
    10.1800       114
    10.2400       110
    10.3000       106
    10.3600       104
    10.4200        98
    10.4800       104
    10.5400       106
    10.6000        86
    10.6600       116
    10.7200        84
    10.7800       110
    10.8400        86
    10.9000       106
    10.9600        86
    11.0200        84
    11.0800        76
    11.1400        78
    11.2000       100
    11.2600        94
    11.3200        78
    11.3800        92
    11.4400        66
    11.5000        86
    11.5600        80
    11.6200        82
    11.6800        80
    11.7400        92
    11.8000        84
    11.8600        68
    11.9200        94
    11.9800        80
    12.0400        68
    12.1000        70
    12.1600        64
    12.2200        74
    12.2800        88
    12.3400        82
    12.4000        64
    12.4600        74
    12.5200        64
    12.5800        72
    12.6400        76
    12.7000        70
    12.7600        52
    12.8200        70
    12.8800        76
    12.9400        78
    13.0000        86
    13.0600        82
    13.1200        64
    13.1800        84
    13.2400        78
    13.3000        70
    13.3600        66
    13.4200        58
    13.4800        60
    13.5400        62
    13.6000        68
    13.6600        62
    13.7200        66
    13.7800        58
    13.8400        66
    13.9000        74
    13.9600        58
    14.0200        62
    14.0800        50
    14.1400        56
    14.2000        64
    14.2600        74
    14.3200        66
    14.3800        50
    14.4400        62
    14.5000        70
    14.5600        78
    14.6200        60
    14.6800        58
    14.7400        62
    14.8000        60
    14.8600        66
    14.9200        70
    14.9800        60
    15.0400        74
    15.1000        62
    15.1600        84
    15.2200        62
    15.2800        58
    15.3400        72
    15.4000        62
    15.4600        64
    15.5200        62
    15.5800        58
    15.6400        52
    15.7000        68
    15.7600        76
    15.8200        50
    15.8800        66
    15.9400        76
    16.0000        80
    16.0600        70
    16.1200        64
    16.1800        54
    16.2400        70
    16.3000        58
    16.3600        60
    16.4200        52
    16.4800        70
    16.5400        56
    16.6000        62
    16.6600        66
    16.7200        72
    16.7800        66
    16.8400        68
    16.9000        72
    16.9600        68
    17.0200        80
    17.0800        82
    17.1400        84
    17.2000       106
    17.2600       138
    17.3200       158
    17.3800       214
    17.4400       284
    17.5000       496
    17.5600       988
    17.6200      2436
    17.6800      5386
    17.7400      4034
    17.8000      1002
    17.8600       246
    17.9200       162
    17.9800       144
    18.0400        80
    18.1000        72
    18.1600        64
    18.2200        72
    18.2800        68
    18.3400        52
    18.4000        58
    18.4600        60
    18.5200        52
    18.5800        54
    18.6400        48
    18.7000        48
    18.7600        58
    18.8200        52
    18.8800        42
    18.9400        60
    19.0000        40
    19.0600        50
    19.1200        50
    19.1800        56
    19.2400        42
    19.3000        68
    19.3600        58
    19.4200        64
    19.4800        84
    19.5400        78
    19.6000       116
    19.6600       138
    19.7200       138
    19.7800       166
    19.8400       148
    19.9000       108
    19.9600        64
    20.0200        76
    20.0800        56
    20.1400        54
    20.2000        64
    20.2600        44
    20.3200        68
    20.3800        54
    20.4400        62
    20.5000        58
    20.5600        68
    20.6200        66
    20.6800        70
    20.7400        54
    20.8000        62
    20.8600        50
    20.9200        50
    20.9800        44
    21.0400        44
    21.1000        50
    21.1600        54
    21.2200        52
    21.2800        50
    21.3400        54
    21.4000        62
    21.4600        70
    21.5200        88
    21.5800        82
    21.6400        60
    21.7000        54
    21.7600        50
    21.8200        52
    21.8800        48
    21.9400        46
    22.0000        54
    22.0600        46
    22.1200        64
    22.1800        74
    22.2400        72
    22.3000        72
    22.3600        70
    22.4200        54
    22.4800        48
    22.5400        54
    22.6000        88
    22.6600        80
    22.7200       100
    22.7800       120
    22.8400       142
    22.9000        90
    22.9600        74
    23.0200        60
    23.0800        42
    23.1400        48
    23.2000        36
    23.2600        56
    23.3200        70
    23.3800        54
    23.4400        52
    23.5000        68
    23.5600       102
    23.6200       124
    23.6800       128
    23.7400       132
    23.8000       120
    23.8600        84
    23.9200        82
    23.9800        74
    24.0400        92
    24.1000       100
    24.1600        80
    24.2200        48
    24.2800        48
    24.3400        38
    24.4000        46
    24.4600        52
    24.5200        40
    24.5800        44
    24.6400        62
    24.7000        64
    24.7600        56
    24.8200        46
    24.8800        74
    24.9400        72
    25.0000        76
    25.0600        74
    25.1200        84
    25.1800        90
    25.2400       122
    25.3000       156
    25.3600       234
    25.4200       260
    25.4800       212
    25.5400       170
    25.6000        92
    25.6600       100
    25.7200       114
    25.7800       106
    25.8400        90
    25.9000       116
    25.9600        94
    26.0200       120
    26.0800       128
    26.1400       154
    26.2000       188
    26.2600       238
    26.3200       406
    26.3800       638
    26.4400       882
    26.5000      1562
    26.5600      3104
    26.6200      7316
    26.6800     14746
    26.7400     13420
    26.8000      6302
    26.8600      1480
    26.9200       510
    26.9800       338
    27.0400       230
    27.1000       150
    27.1600       128
    27.2200       104
    27.2800        96
    27.3400        88
    27.4000       102
    27.4600       100
    27.5200        86
    27.5800       136
    27.6400       178
    27.7000       250
    27.7600       298
    27.8200       286
    27.8800       182
    27.9400       110
    28.0000        70
    28.0600        78
    28.1200        58
    28.1800        66
    28.2400        50
    28.3000        68
    28.3600        64
    28.4200        84
    28.4800        70
    28.5400        72
    28.6000        56
    28.6600        48
    28.7200        50
    28.7800        50
    28.8400        38
    28.9000        54
    28.9600        46
    29.0200        56
    29.0800        52
    29.1400        34
    29.2000        52
    29.2600        50
    29.3200        54
    29.3800        60
    29.4400        76
    29.5000        84
    29.5600       128
    29.6200       156
    29.6800       288
    29.7400       356
    29.8000       326
    29.8600       254
    29.9200       162
    29.9800        78
    30.0400        78
    30.1000        70
    30.1600        48
    30.2200        46
    30.2800        70
    30.3400        40
    30.4000        28
    30.4600        46
    30.5200        32
    30.5800        46
    30.6400        50
    30.7000        56
    30.7600        48
    30.8200        68
    30.8800        88
    30.9400        84
    31.0000       122
    31.0600       216
    31.1200       290
    31.1800       274
    31.2400       194
    31.3000       110
    31.3600        72
    31.4200        64
    31.4800        50
    31.5400        66
    31.6000        54
    31.6600        56
    31.7200        70
    31.7800       100
    31.8400       144
    31.9000       198
    31.9600       246
    32.0200       194
    32.0800       106
    32.1400        82
    32.2000        48
    32.2600        58
    32.3200        38
    32.3800        40
    32.4400        36
    32.5000        44
    32.5600        38
    32.6200        36
    32.6800        30
    32.7400        42
    32.8000        28
    32.8600        34
    32.9200        26
    32.9800        30
    33.0400        34
    33.1000        34
    33.1600        32
    33.2200        40
    33.2800        32
    33.3400        38
    33.4000        48
    33.4600        34
    33.5200        34
    33.5800        36
    33.6400        32
    33.7000        40
    33.7600        38
    33.8200        40
    33.8800        44
    33.9400        34
    34.0000        40
    34.0600        38
    34.1200        42
    34.1800        48
    34.2400        54
    34.3000        78
    34.3600        90
    34.4200        98
    34.4800       146
    34.5400       144
    34.6000       136
    34.6600       144
    34.7200       160
    34.7800       214
    34.8400       296
    34.9000       328
    34.9600       262
    35.0200       198
    35.0800       142
    35.1400        98
    35.2000        82
    35.2600        50
    35.3200        34
    35.3800        46
    35.4400        86
    35.5000        70
    35.5600        94
    35.6200       142
    35.6800       222
    35.7400       354
    35.8000       764
    35.8600      1408
    35.9200      1358
    35.9800       826
    36.0400       350
    36.1000       104
    36.1600        90
    36.2200        94
    36.2800        96
    36.3400        92
    36.4000        88
    36.4600        86
    36.5200        76
    36.5800        66
    36.6400        60
    36.7000        48
    36.7600        64
    36.8200        48
    36.8800        38
    36.9400        42
    37.0000        46
    37.0600        50
    37.1200        64
    37.1800        56
    37.2400        58
    37.3000        62
    37.3600        72
    37.4200        70
    37.4800        76
    37.5400        86
    37.6000        98
    37.6600       108
    37.7200        92
    37.7800        98
    37.8400        62
    37.9000        54
    37.9600        48
    38.0200        50
    38.0800        42
    38.1400        40
    38.2000        40
    38.2600        34
    38.3200        26
    38.3800        30
    38.4400        34
    38.5000        36
    38.5600        30
    38.6200        38
    38.6800        32
    38.7400        36
    38.8000        30
    38.8600        32
    38.9200        34
    38.9800        26
    39.0400        36
    39.1000        30
    39.1600        36
    39.2200        24
    39.2800        26
    39.3400        32
    39.4000        24
    39.4600        24
    39.5200        34
    39.5800        26
    39.6400        38
    39.7000        44
    39.7600        34
    39.8200        46
    39.8800        40
    39.9400        46
    40.0000        46
    40.0600        52
    40.1200        62
    40.1800        50
    40.2400        64
    40.3000        38
    40.3600        60
    40.4200        46
    40.4800        40
    40.5400        36
    40.6000        48
    40.6600        54
    40.7200        78
    40.7800        82
    40.8400        54
    40.9000        64
    40.9600        60
    41.0200        68
    41.0800        44
    41.1400        40
    41.2000        50
    41.2600        44
    41.3200        48
    41.3800        28
    41.4400        34
    41.5000        38
    41.5600        32
    41.6200        54
    41.6800        36
    41.7400        48
    41.8000        66
    41.8600        82
    41.9200        90
    41.9800        96
    42.0400        78
    42.1000        80
    42.1600        90
    42.2200       124
    42.2800       108
    42.3400       138
    42.4000       116
    42.4600        98
    42.5200       104
    42.5800        64
    42.6400        60
    42.7000        34
    42.7600        46
    42.8200        50
    42.8800        46
    42.9400        34
    43.0000        46
    43.0600        54
    43.1200        50
    43.1800        40
    43.2400        42
    43.3000        64
    43.3600        48
    43.4200        48
    43.4800        56
    43.5400        48
    43.6000        52
    43.6600        54
    43.7200        48
    43.7800        58
    43.8400        54
    43.9000        62
    43.9600        80
    44.0200        52
    44.0800        74
    44.1400        62
    44.2000        68
    44.2600        80
    44.3200        62
    44.3800        60
    44.4400        84
    44.5000        58
    44.5600        72
    44.6200        68
    44.6800        70
    44.7400        80
    44.8000       102
    44.8600       106
    44.9200       128
    44.9800       240
    45.0400       336
    45.1000       540
    45.1600      1074
    45.2200      2858
    45.2800      6230
    45.3400      7114
    45.4000      4494
    45.4600      3180
    45.5200      1150
    45.5800       404
    45.6400       224
    45.7000       164
    45.7600       136
    45.8200       128
    45.8800       140
    45.9400       130
    46.0000       114
    46.0600        98
    46.1200        72
    46.1800        68
    46.2400        62
    46.3000        64
    46.3600        70
    46.4200        60
    46.4800        76
    46.5400        70
    46.6000        72
    46.6600        70
    46.7200        46
    46.7800        42
    46.8400        36
    46.9000        32
    46.9600        36
    47.0200        36
    47.0800        52
    47.1400        48
    47.2000        38
    47.2600        40
    47.3200        36
    47.3800        38
    47.4400        34
    47.5000        40
    47.5600        40
    47.6200        30
    47.6800        24
    47.7400        38
    47.8000        44
    47.8600        42
    47.9200        50
    47.9800        44
    48.0400        48
    48.1000        36
    48.1600        34
    48.2200        46
    48.2800        42
    48.3400        32
    48.4000        32
    48.4600        52
    48.5200        28
    48.5800        36
    48.6400        48
    48.7000        34
    48.7600        38
    48.8200        28
    48.8800        30
    48.9400        30
    49.0000        30
    49.0600        34
    49.1200        22
    49.1800        38
    49.2400        38
    49.3000        44
    49.3600        38
    49.4200        34
    49.4800        42
    49.5400        36
    49.6000        26
    49.6600        36
    49.7200        36
    49.7800        38
    49.8400        60
    49.9000        50
    49.9600        36
    50.0200        34
    50.0800        22
    50.1400        28
    50.2000        30
    50.2600        36
    50.3200        18
    50.3800        42
    50.4400        32
    50.5000        24
    50.5600        26
    50.6200        28
    50.6800        26
    50.7400        24
    50.8000        26
    50.8600        26
    50.9200        30
    50.9800        36
    51.0400        36
    51.1000        20
    51.1600        26
    51.2200        28
    51.2800        22
    51.3400        20
    51.4000        26
    51.4600        22
    51.5200        28
    51.5800        38
    51.6400        34
    51.7000        40
    51.7600        34
    51.8200        20
    51.8800        32
    51.9400        44
    52.0000        26
    52.0600        32
    52.1200        26
    52.1800        36
    52.2400        38
    52.3000        48
    52.3600        36
    52.4200        52
    52.4800        62
    52.5400        72
    52.6000        56
    52.6600        90
    52.7200        86
    52.7800       100
    52.8400        90
    52.9000        64
    52.9600        56
    53.0200        50
    53.0800        44
    53.1400        40
    53.2000        34
    53.2600        40
    53.3200        48
    53.3800        40
    53.4400        40
    53.5000        44
    53.5600        36
    53.6200        40
    53.6800        40
    53.7400        40
    53.8000        52
    53.8600        54
    53.9200        50
    53.9800        34
    54.0400        66
    54.1000        40
    54.1600        48
    54.2200        30
    54.2800        38
    54.3400        42
    54.4000        34
    54.4600        48
    54.5200        24
    54.5800        46
    54.6400        32
    54.7000        62
    54.7600        36
    54.8200        58
    54.8800        64
    54.9400        72
    55.0000        82
    55.0600       192
    55.1200       192
    55.1800       150
    55.2400       150
    55.3000       112
    55.3600        80
    55.4200        76
    55.4800        94
    55.5400        98
    55.6000       146
    55.6600       204
    55.7200       234
    55.7800       162
    55.8400       186
    55.9000       108
    55.9600        96
    56.0200        80
    56.0800        62
    56.1400        58
    56.2000        48
    56.2600        52
    56.3200        66
    56.3800        60
    56.4400        40
    56.5000        52
    56.5600        48
    56.6200        42
    56.6800        46
    56.7400        52
    56.8000        36
    56.8600        44
    56.9200        44
    56.9800        36
    57.0400        50
    57.1000        48
    57.1600        46
    57.2200        52
    57.2800        48
    57.3400        46
    57.4000        50
    57.4600        70
    57.5200        44
    57.5800        48
    57.6400        46
    57.7000        40
    57.7600        50
    57.8200        38
    57.8800        48
    57.9400        48
    58.0000        42
    58.0600        30
    58.1200        28
    58.1800        32
    58.2400        40
    58.3000        32
    58.3600        38
    58.4200        28
    58.4800        48
    58.5400        36
    58.6000        28
    58.6600        30
    58.7200        40
    58.7800        36
    58.8400        34
    58.9000        38
    58.9600        42
    59.0200        62
    59.0800        60
    59.1400        64
    59.2000        58
    59.2600        66
    59.3200        52
    59.3800        60
    59.4400        44
    59.5000        36
    59.5600        40
    59.6200        38
    59.6800        26
    59.7400        48
    59.8000        54
    59.8600        30
    59.9200        30
    59.9800        36
    60.0400        30
    60.1000        42
    60.1600        42
    60.2200        34
    60.2800        40
    60.3400        60
    60.4000        56
    60.4600        72
    60.5200       102
    60.5800       140
    60.6400       148
    60.7000       120
    60.7600       118
    60.8200       122
    60.8800       106
    60.9400        92
    61.0000       100
    61.0600        58
    61.1200        70
    61.1800        78
    61.2400        66
    61.3000        98
    61.3600        76
    61.4200        78
    61.4800        90
    61.5400        74
    61.6000        84
    61.6600       104
    61.7200       104
    61.7800        96
    61.8400        98
    61.9000        82
    61.9600        64
    62.0200        62
    62.0800        64
    62.1400        52
    62.2000        50
    62.2600        40
    62.3200        36
    62.3800        30
    62.4400        36
    62.5000        44
    62.5600        36
    62.6200        40
    62.6800        36
    62.7400        48
    62.8000        36
    62.8600        38
    62.9200        50
    62.9800        38
    63.0400        42
    63.1000        64
    63.1600        50
    63.2200        44
    63.2800        32
    63.3400        38
    63.4000        34
    63.4600        34
    63.5200        34
    63.5800        46
    63.6400        44
    63.7000        48
    63.7600        84
    63.8200       108
    63.8800       130
    63.9400       130
    64.0000       118
    64.0600        94
    64.1200        64
    64.1800        70
    64.2400        34
    64.3000        28
    64.3600        36
    64.4200        38
    64.4800        36
    64.5400        28
    64.6000        26
    64.6600        32
    64.7200        38
    64.7800        42
    64.8400        38
    64.9000        44
    64.9600        52
    65.0000        56