File: sl1/usgs/library06/DESCRIPT/new_xrd_results_to_be_added/Rhonda_Driscoll_xrd_runs/GDS108-Muscovite.txt
/////////////////////////////////////////////////////////////////////////////////
/// Profile Data Ascii Dump (XRD)                                             ///
/////////////////////////////////////////////////////////////////////////////////

  Group     : Swayze
  Data      : GDS108
  File Name : GDS108.RAW

# Profile Datafile
          comment             = Muscovite
          date & time         = 08-04-29 06:41:57

# Measurement Condition
    X-ray tube
          target              = Cu
          voltage             = 40.0 (kV)
          current             = 30.0 (mA)
    Slits
          divergence slit     = 2.00000 (deg)
          scatter slit        = 2.00000 (deg)
          receiving slit      = 0.15000 (mm)
    Scanning
          drive axis          = Theta-2Theta
          scan range          =    4.000 -   65.000
          scan mode           = Continuous Scan
          scan speed          =   2.0000 (deg/min)
          sampling pitch      =   0.0200 (deg)
          preset time         =   0.60 (sec)

# Data      [ Total No. = 3051 ]
  <2Theta>   <   I   >
     4.0000       188
     4.0600       222
     4.1200       214
     4.1800       168
     4.2400       208
     4.3000       198
     4.3600       186
     4.4200       192
     4.4800       196
     4.5400       152
     4.6000       180
     4.6600       168
     4.7200       184
     4.7800       192
     4.8400       160
     4.9000       178
     4.9600       164
     5.0200       198
     5.0800       198
     5.1400       168
     5.2000       160
     5.2600       158
     5.3200       188
     5.3800       166
     5.4400       180
     5.5000       152
     5.5600       168
     5.6200       154
     5.6800       168
     5.7400       158
     5.8000       178
     5.8600       190
     5.9200       178
     5.9800       172
     6.0400       172
     6.1000       154
     6.1600       154
     6.2200       178
     6.2800       164
     6.3400       194
     6.4000       134
     6.4600       136
     6.5200       136
     6.5800       158
     6.6400       160
     6.7000       140
     6.7600       142
     6.8200       134
     6.8800       144
     6.9400       144
     7.0000       148
     7.0600       138
     7.1200       142
     7.1800       124
     7.2400       114
     7.3000       158
     7.3600       122
     7.4200       124
     7.4800       140
     7.5400       116
     7.6000       126
     7.6600       126
     7.7200       124
     7.7800       130
     7.8400       150
     7.9000       150
     7.9600       146
     8.0200       146
     8.0800       140
     8.1400       170
     8.2000       164
     8.2600       164
     8.3200       162
     8.3800       200
     8.4400       244
     8.5000       272
     8.5600       348
     8.6200       446
     8.6800       662
     8.7400      1102
     8.8000      2208
     8.8600      3818
     8.9200      1640
     8.9800       392
     9.0400       188
     9.1000       174
     9.1600       148
     9.2200       110
     9.2800       124
     9.3400       120
     9.4000       122
     9.4600       128
     9.5200       102
     9.5800       112
     9.6400       108
     9.7000       116
     9.7600       122
     9.8200       118
     9.8800       144
     9.9400       114
    10.0000       108
    10.0600        90
    10.1200        92
    10.1800        92
    10.2400       102
    10.3000       104
    10.3600        94
    10.4200       108
    10.4800        94
    10.5400        80
    10.6000       116
    10.6600       102
    10.7200        98
    10.7800        92
    10.8400       120
    10.9000       114
    10.9600        94
    11.0200        96
    11.0800        78
    11.1400        86
    11.2000        88
    11.2600        88
    11.3200        88
    11.3800        88
    11.4400        82
    11.5000        76
    11.5600        80
    11.6200        88
    11.6800       100
    11.7400        88
    11.8000        86
    11.8600        84
    11.9200        90
    11.9800        78
    12.0400        82
    12.1000        76
    12.1600        94
    12.2200       102
    12.2800       110
    12.3400       106
    12.4000        88
    12.4600        96
    12.5200        88
    12.5800        90
    12.6400        76
    12.7000        86
    12.7600        92
    12.8200        72
    12.8800        72
    12.9400        80
    13.0000        66
    13.0600        74
    13.1200        78
    13.1800        62
    13.2400        66
    13.3000        86
    13.3600        84
    13.4200        90
    13.4800        74
    13.5400        74
    13.6000        60
    13.6600        82
    13.7200        66
    13.7800        66
    13.8400        76
    13.9000        66
    13.9600        78
    14.0200        66
    14.0800        66
    14.1400        66
    14.2000        74
    14.2600        78
    14.3200        76
    14.3800        48
    14.4400        68
    14.5000        58
    14.5600        68
    14.6200        72
    14.6800        60
    14.7400        68
    14.8000        50
    14.8600        62
    14.9200        62
    14.9800        48
    15.0400        70
    15.1000        56
    15.1600        66
    15.2200        70
    15.2800        70
    15.3400        56
    15.4000        60
    15.4600        60
    15.5200        46
    15.5800        60
    15.6400        62
    15.7000        50
    15.7600        52
    15.8200        50
    15.8800        60
    15.9400        62
    16.0000        74
    16.0600        62
    16.1200        54
    16.1800        54
    16.2400        56
    16.3000        56
    16.3600        68
    16.4200        56
    16.4800        62
    16.5400        70
    16.6000        60
    16.6600        60
    16.7200        56
    16.7800        62
    16.8400        68
    16.9000        76
    16.9600        58
    17.0200        66
    17.0800        78
    17.1400        74
    17.2000        80
    17.2600        72
    17.3200       112
    17.3800       154
    17.4400       150
    17.5000       192
    17.5600       330
    17.6200       530
    17.6800      1266
    17.7400      2316
    17.8000      1530
    17.8600       402
    17.9200       150
    17.9800       116
    18.0400        84
    18.1000        82
    18.1600        62
    18.2200        70
    18.2800        72
    18.3400        72
    18.4000        64
    18.4600        70
    18.5200       102
    18.5800        72
    18.6400        72
    18.7000        66
    18.7600        44
    18.8200        62
    18.8800        66
    18.9400        44
    19.0000        62
    19.0600        62
    19.1200        40
    19.1800        58
    19.2400        54
    19.3000        66
    19.3600        62
    19.4200        48
    19.4800        56
    19.5400        60
    19.6000        56
    19.6600        76
    19.7200       106
    19.7800        88
    19.8400       108
    19.9000        84
    19.9600        84
    20.0200        82
    20.0800        60
    20.1400        56
    20.2000        50
    20.2600        62
    20.3200        50
    20.3800        46
    20.4400        50
    20.5000        58
    20.5600        56
    20.6200        54
    20.6800        64
    20.7400        58
    20.8000        60
    20.8600        46
    20.9200        56
    20.9800        48
    21.0400        58
    21.1000        50
    21.1600        56
    21.2200        64
    21.2800        40
    21.3400        54
    21.4000        48
    21.4600        58
    21.5200        46
    21.5800        68
    21.6400        56
    21.7000        62
    21.7600        52
    21.8200        42
    21.8800        66
    21.9400        54
    22.0000        60
    22.0600        50
    22.1200        56
    22.1800        58
    22.2400        72
    22.3000        52
    22.3600        44
    22.4200        50
    22.4800        64
    22.5400        64
    22.6000        50
    22.6600        66
    22.7200        70
    22.7800        74
    22.8400        78
    22.9000       100
    22.9600        78
    23.0200        74
    23.0800        54
    23.1400        50
    23.2000        72
    23.2600        42
    23.3200        38
    23.3800        58
    23.4400        64
    23.5000        62
    23.5600        68
    23.6200        74
    23.6800        70
    23.7400        80
    23.8000        94
    23.8600        98
    23.9200        62
    23.9800        74
    24.0400        82
    24.1000        98
    24.1600        92
    24.2200        48
    24.2800        48
    24.3400        40
    24.4000        56
    24.4600        46
    24.5200        64
    24.5800        50
    24.6400        48
    24.7000        74
    24.7600        62
    24.8200        92
    24.8800        86
    24.9400        72
    25.0000        78
    25.0600        68
    25.1200        68
    25.1800        64
    25.2400        88
    25.3000        78
    25.3600       118
    25.4200       138
    25.4800       156
    25.5400       128
    25.6000       122
    25.6600        84
    25.7200        88
    25.7800        94
    25.8400        82
    25.9000       102
    25.9600        88
    26.0200        98
    26.0800        96
    26.1400        98
    26.2000       126
    26.2600       166
    26.3200       176
    26.3800       272
    26.4400       454
    26.5000       638
    26.5600      1122
    26.6200      2232
    26.6800      5204
    26.7400      9130
    26.8000      6592
    26.8600      2602
    26.9200       678
    26.9800       344
    27.0400       220
    27.1000       168
    27.1600       108
    27.2200        80
    27.2800        80
    27.3400       100
    27.4000        86
    27.4600        90
    27.5200        76
    27.5800        92
    27.6400       122
    27.7000       104
    27.7600       102
    27.8200       132
    27.8800       122
    27.9400       116
    28.0000        80
    28.0600        64
    28.1200        42
    28.1800        60
    28.2400        74
    28.3000        48
    28.3600        52
    28.4200        46
    28.4800        42
    28.5400        54
    28.6000        56
    28.6600        42
    28.7200        40
    28.7800        48
    28.8400        54
    28.9000        38
    28.9600        34
    29.0200        42
    29.0800        50
    29.1400        46
    29.2000        40
    29.2600        50
    29.3200        40
    29.3800        50
    29.4400        54
    29.5000        58
    29.5600        76
    29.6200        76
    29.6800        86
    29.7400       124
    29.8000       126
    29.8600       150
    29.9200       122
    29.9800       100
    30.0400        82
    30.1000        52
    30.1600        52
    30.2200        54
    30.2800        44
    30.3400        32
    30.4000        50
    30.4600        44
    30.5200        58
    30.5800        42
    30.6400        52
    30.7000        44
    30.7600        52
    30.8200        72
    30.8800        70
    30.9400        84
    31.0000        78
    31.0600        98
    31.1200        96
    31.1800       100
    31.2400       116
    31.3000       106
    31.3600        80
    31.4200        64
    31.4800        54
    31.5400        48
    31.6000        44
    31.6600        50
    31.7200        48
    31.7800        70
    31.8400        74
    31.9000        78
    31.9600       108
    32.0200        96
    32.0800        80
    32.1400        62
    32.2000        60
    32.2600        58
    32.3200        46
    32.3800        40
    32.4400        36
    32.5000        30
    32.5600        30
    32.6200        46
    32.6800        36
    32.7400        36
    32.8000        50
    32.8600        36
    32.9200        40
    32.9800        42
    33.0400        32
    33.1000        52
    33.1600        34
    33.2200        36
    33.2800        36
    33.3400        38
    33.4000        32
    33.4600        40
    33.5200        50
    33.5800        38
    33.6400        32
    33.7000        32
    33.7600        28
    33.8200        44
    33.8800        44
    33.9400        36
    34.0000        38
    34.0600        26
    34.1200        34
    34.1800        46
    34.2400        42
    34.3000        36
    34.3600        48
    34.4200        42
    34.4800        52
    34.5400        66
    34.6000        72
    34.6600        70
    34.7200        90
    34.7800        78
    34.8400       122
    34.9000       110
    34.9600       126
    35.0200       116
    35.0800        96
    35.1400        80
    35.2000        78
    35.2600        70
    35.3200        82
    35.3800        48
    35.4400        70
    35.5000        56
    35.5600        62
    35.6200        82
    35.6800       124
    35.7400       168
    35.8000       310
    35.8600       670
    35.9200      1104
    35.9800       788
    36.0400       444
    36.1000       160
    36.1600        88
    36.2200        64
    36.2800        48
    36.3400        52
    36.4000        48
    36.4600        58
    36.5200        48
    36.5800        44
    36.6400        58
    36.7000        42
    36.7600        44
    36.8200        36
    36.8800        42
    36.9400        50
    37.0000        36
    37.0600        38
    37.1200        22
    37.1800        24
    37.2400        38
    37.3000        34
    37.3600        50
    37.4200        46
    37.4800        56
    37.5400        58
    37.6000        32
    37.6600        40
    37.7200        56
    37.7800        48
    37.8400        44
    37.9000        32
    37.9600        46
    38.0200        36
    38.0800        34
    38.1400        38
    38.2000        46
    38.2600        40
    38.3200        36
    38.3800        32
    38.4400        32
    38.5000        32
    38.5600        30
    38.6200        32
    38.6800        26
    38.7400        32
    38.8000        30
    38.8600        34
    38.9200        38
    38.9800        24
    39.0400        26
    39.1000        30
    39.1600        26
    39.2200        26
    39.2800        24
    39.3400        42
    39.4000        22
    39.4600        24
    39.5200        32
    39.5800        42
    39.6400        28
    39.7000        26
    39.7600        32
    39.8200        30
    39.8800        42
    39.9400        30
    40.0000        48
    40.0600        32
    40.1200        40
    40.1800        40
    40.2400        38
    40.3000        30
    40.3600        38
    40.4200        34
    40.4800        30
    40.5400        36
    40.6000        30
    40.6600        52
    40.7200        46
    40.7800        32
    40.8400        38
    40.9000        38
    40.9600        32
    41.0200        36
    41.0800        34
    41.1400        30
    41.2000        32
    41.2600        32
    41.3200        34
    41.3800        36
    41.4400        40
    41.5000        48
    41.5600        40
    41.6200        36
    41.6800        40
    41.7400        36
    41.8000        36
    41.8600        42
    41.9200        38
    41.9800        38
    42.0400        54
    42.1000        54
    42.1600        52
    42.2200        48
    42.2800        64
    42.3400        38
    42.4000        78
    42.4600        62
    42.5200        62
    42.5800        46
    42.6400        54
    42.7000        50
    42.7600        52
    42.8200        52
    42.8800        40
    42.9400        44
    43.0000        42
    43.0600        44
    43.1200        46
    43.1800        36
    43.2400        50
    43.3000        38
    43.3600        34
    43.4200        36
    43.4800        44
    43.5400        30
    43.6000        38
    43.6600        42
    43.7200        56
    43.7800        40
    43.8400        36
    43.9000        44
    43.9600        54
    44.0200        50
    44.0800        44
    44.1400        54
    44.2000        62
    44.2600        58
    44.3200        26
    44.3800        54
    44.4400        58
    44.5000        48
    44.5600        60
    44.6200        60
    44.6800        56
    44.7400        86
    44.8000        76
    44.8600       100
    44.9200       106
    44.9800       170
    45.0400       234
    45.1000       342
    45.1600       580
    45.2200      1354
    45.2800      3324
    45.3400      4958
    45.4000      3688
    45.4600      2620
    45.5200      1316
    45.5800       422
    45.6400       224
    45.7000       172
    45.7600       122
    45.8200        90
    45.8800        74
    45.9400        90
    46.0000        82
    46.0600        72
    46.1200        60
    46.1800        50
    46.2400        60
    46.3000        48
    46.3600        48
    46.4200        32
    46.4800        48
    46.5400        28
    46.6000        44
    46.6600        50
    46.7200        32
    46.7800        38
    46.8400        30
    46.9000        24
    46.9600        42
    47.0200        40
    47.0800        36
    47.1400        38
    47.2000        38
    47.2600        28
    47.3200        28
    47.3800        34
    47.4400        30
    47.5000        22
    47.5600        38
    47.6200        26
    47.6800        30
    47.7400        28
    47.8000        34
    47.8600        32
    47.9200        34
    47.9800        26
    48.0400        48
    48.1000        36
    48.1600        30
    48.2200        30
    48.2800        34
    48.3400        34
    48.4000        28
    48.4600        28
    48.5200        30
    48.5800        26
    48.6400        48
    48.7000        28
    48.7600        32
    48.8200        34
    48.8800        28
    48.9400        28
    49.0000        32
    49.0600        34
    49.1200        26
    49.1800        32
    49.2400        26
    49.3000        32
    49.3600        26
    49.4200        40
    49.4800        30
    49.5400        18
    49.6000        32
    49.6600        30
    49.7200        24
    49.7800        32
    49.8400        22
    49.9000        26
    49.9600        38
    50.0200        20
    50.0800        38
    50.1400        22
    50.2000        30
    50.2600        38
    50.3200        20
    50.3800        18
    50.4400        34
    50.5000        28
    50.5600        38
    50.6200        24
    50.6800        38
    50.7400        24
    50.8000        28
    50.8600        30
    50.9200        30
    50.9800        26
    51.0400        34
    51.1000        28
    51.1600        30
    51.2200        36
    51.2800        26
    51.3400        22
    51.4000        22
    51.4600        32
    51.5200        24
    51.5800        26
    51.6400        24
    51.7000        24
    51.7600        24
    51.8200        20
    51.8800        26
    51.9400        32
    52.0000        28
    52.0600        32
    52.1200        32
    52.1800        28
    52.2400        40
    52.3000        26
    52.3600        36
    52.4200        28
    52.4800        32
    52.5400        34
    52.6000        42
    52.6600        38
    52.7200        36
    52.7800        46
    52.8400        34
    52.9000        40
    52.9600        44
    53.0200        42
    53.0800        28
    53.1400        44
    53.2000        22
    53.2600        36
    53.3200        26
    53.3800        26
    53.4400        40
    53.5000        42
    53.5600        26
    53.6200        42
    53.6800        36
    53.7400        30
    53.8000        22
    53.8600        26
    53.9200        28
    53.9800        22
    54.0400        26
    54.1000        26
    54.1600        30
    54.2200        36
    54.2800        36
    54.3400        32
    54.4000        32
    54.4600        40
    54.5200        28
    54.5800        34
    54.6400        34
    54.7000        30
    54.7600        34
    54.8200        42
    54.8800        46
    54.9400        48
    55.0000        62
    55.0600       102
    55.1200       120
    55.1800        78
    55.2400        92
    55.3000        58
    55.3600        52
    55.4200        42
    55.4800        54
    55.5400        40
    55.6000        62
    55.6600        62
    55.7200        80
    55.7800        60
    55.8400        42
    55.9000        44
    55.9600        48
    56.0200        44
    56.0800        50
    56.1400        44
    56.2000        34
    56.2600        22
    56.3200        36
    56.3800        30
    56.4400        30
    56.5000        26
    56.5600        30
    56.6200        36
    56.6800        20
    56.7400        30
    56.8000        28
    56.8600        36
    56.9200        28
    56.9800        38
    57.0400        32
    57.1000        32
    57.1600        18
    57.2200        26
    57.2800        34
    57.3400        28
    57.4000        36
    57.4600        26
    57.5200        42
    57.5800        28
    57.6400        28
    57.7000        34
    57.7600        28
    57.8200        30
    57.8800        38
    57.9400        24
    58.0000        30
    58.0600        30
    58.1200        40
    58.1800        30
    58.2400        32
    58.3000        34
    58.3600        32
    58.4200        24
    58.4800        34
    58.5400        34
    58.6000        44
    58.6600        32
    58.7200        30
    58.7800        34
    58.8400        16
    58.9000        34
    58.9600        42
    59.0200        28
    59.0800        40
    59.1400        26
    59.2000        28
    59.2600        34
    59.3200        34
    59.3800        28
    59.4400        38
    59.5000        34
    59.5600        28
    59.6200        26
    59.6800        36
    59.7400        32
    59.8000        34
    59.8600        32
    59.9200        26
    59.9800        20
    60.0400        28
    60.1000        30
    60.1600        30
    60.2200        48
    60.2800        38
    60.3400        34
    60.4000        30
    60.4600        22
    60.5200        42
    60.5800        54
    60.6400        38
    60.7000        38
    60.7600        42
    60.8200        40
    60.8800        40
    60.9400        54
    61.0000        42
    61.0600        40
    61.1200        52
    61.1800        36
    61.2400        36
    61.3000        34
    61.3600        34
    61.4200        28
    61.4800        48
    61.5400        50
    61.6000        46
    61.6600        36
    61.7200        46
    61.7800        50
    61.8400        40
    61.9000        56
    61.9600        38
    62.0200        34
    62.0800        48
    62.1400        40
    62.2000        40
    62.2600        30
    62.3200        36
    62.3800        28
    62.4400        36
    62.5000        34
    62.5600        30
    62.6200        38
    62.6800        28
    62.7400        30
    62.8000        30
    62.8600        30
    62.9200        42
    62.9800        42
    63.0400        26
    63.1000        30
    63.1600        34
    63.2200        32
    63.2800        26
    63.3400        30
    63.4000        32
    63.4600        32
    63.5200        34
    63.5800        36
    63.6400        32
    63.7000        36
    63.7600        30
    63.8200        40
    63.8800        44
    63.9400        52
    64.0000        38
    64.0600        56
    64.1200        50
    64.1800        30
    64.2400        32
    64.3000        24
    64.3600        28
    64.4200        36
    64.4800        42
    64.5400        34
    64.6000        24
    64.6600        22
    64.7200        38
    64.7800        48
    64.8400        38
    64.9000        34
    64.9600        42
    65.0000        58