File: sl1/usgs/library06/DESCRIPT/new_xrd_results_to_be_added/Rhonda_Driscoll_xrd_runs/GDS135---Suaconite.txt
/////////////////////////////////////////////////////////////////////////////////
/// Profile Data Ascii Dump (XRD)                                             ///
/////////////////////////////////////////////////////////////////////////////////

  Group     : Swayze
  Data      : GDS135
  File Name : GDS135.RAW

# Profile Datafile
          comment             = Sauconite
          date & time         = 08-03-14 07:26:52

# Measurement Condition
    X-ray tube
          target              = Cu
          voltage             = 40.0 (kV)
          current             = 30.0 (mA)
    Slits
          divergence slit     = 2.00000 (deg)
          scatter slit        = 2.00000 (deg)
          receiving slit      = 0.15000 (mm)
    Scanning
          drive axis          = Theta-2Theta
          scan range          =    4.000 -   65.000
          scan mode           = Continuous Scan
          scan speed          =   2.0000 (deg/min)
          sampling pitch      =   0.0200 (deg)
          preset time         =   0.60 (sec)

# Data      [ Total No. = 3051 ]
  <2Theta>   <   I   >
     4.0000       232
     4.0600       224
     4.1200       304
     4.1800       264
     4.2400       252
     4.3000       256
     4.3600       274
     4.4200       268
     4.4800       286
     4.5400       304
     4.6000       318
     4.6600       292
     4.7200       312
     4.7800       328
     4.8400       362
     4.9000       324
     4.9600       382
     5.0200       396
     5.0800       408
     5.1400       448
     5.2000       480
     5.2600       516
     5.3200       586
     5.3800       582
     5.4400       618
     5.5000       658
     5.5600       726
     5.6200       848
     5.6800       902
     5.7400       966
     5.8000      1018
     5.8600      1042
     5.9200      1164
     5.9800      1064
     6.0400      1140
     6.1000      1150
     6.1600      1216
     6.2200      1192
     6.2800      1158
     6.3400      1036
     6.4000      1072
     6.4600       978
     6.5200       956
     6.5800       906
     6.6400       788
     6.7000       760
     6.7600       718
     6.8200       604
     6.8800       592
     6.9400       570
     7.0000       550
     7.0600       468
     7.1200       416
     7.1800       392
     7.2400       368
     7.3000       332
     7.3600       312
     7.4200       300
     7.4800       262
     7.5400       252
     7.6000       240
     7.6600       244
     7.7200       206
     7.7800       202
     7.8400       198
     7.9000       186
     7.9600       188
     8.0200       222
     8.0800       194
     8.1400       174
     8.2000       172
     8.2600       164
     8.3200       148
     8.3800       158
     8.4400       176
     8.5000       184
     8.5600       158
     8.6200       166
     8.6800       140
     8.7400       152
     8.8000       162
     8.8600       156
     8.9200       142
     8.9800       166
     9.0400       152
     9.1000       152
     9.1600       162
     9.2200       156
     9.2800       144
     9.3400       130
     9.4000       128
     9.4600       124
     9.5200       154
     9.5800       130
     9.6400       148
     9.7000       126
     9.7600       120
     9.8200       114
     9.8800       134
     9.9400       120
    10.0000       156
    10.0600       152
    10.1200       104
    10.1800       132
    10.2400       140
    10.3000       128
    10.3600       136
    10.4200       124
    10.4800       116
    10.5400       114
    10.6000       102
    10.6600       106
    10.7200       126
    10.7800       100
    10.8400       110
    10.9000       122
    10.9600       134
    11.0200       136
    11.0800       154
    11.1400       118
    11.2000       130
    11.2600       104
    11.3200       134
    11.3800       138
    11.4400       136
    11.5000       124
    11.5600       132
    11.6200       166
    11.6800       144
    11.7400       134
    11.8000       124
    11.8600       152
    11.9200       152
    11.9800       138
    12.0400       158
    12.1000       152
    12.1600       168
    12.2200       120
    12.2800       138
    12.3400       156
    12.4000       140
    12.4600       126
    12.5200       140
    12.5800       160
    12.6400       154
    12.7000       112
    12.7600       122
    12.8200       106
    12.8800       148
    12.9400       100
    13.0000       110
    13.0600       110
    13.1200        90
    13.1800       126
    13.2400       112
    13.3000       102
    13.3600        86
    13.4200       106
    13.4800        90
    13.5400        94
    13.6000        66
    13.6600        92
    13.7200        94
    13.7800       106
    13.8400        98
    13.9000        92
    13.9600        78
    14.0200        96
    14.0800        92
    14.1400        92
    14.2000        78
    14.2600        74
    14.3200        86
    14.3800        82
    14.4400        82
    14.5000        84
    14.5600        72
    14.6200        66
    14.6800        80
    14.7400        80
    14.8000        82
    14.8600        74
    14.9200        86
    14.9800        88
    15.0400        68
    15.1000        76
    15.1600        62
    15.2200        82
    15.2800        86
    15.3400        70
    15.4000        66
    15.4600        60
    15.5200        68
    15.5800        72
    15.6400        66
    15.7000        76
    15.7600        70
    15.8200        72
    15.8800        60
    15.9400        68
    16.0000        60
    16.0600        46
    16.1200        76
    16.1800        80
    16.2400        74
    16.3000        74
    16.3600        80
    16.4200        58
    16.4800        60
    16.5400        60
    16.6000        74
    16.6600        62
    16.7200        62
    16.7800        64
    16.8400        76
    16.9000        60
    16.9600        60
    17.0200        86
    17.0800        66
    17.1400        58
    17.2000        66
    17.2600        76
    17.3200        74
    17.3800        74
    17.4400        74
    17.5000        70
    17.5600        82
    17.6200        58
    17.6800        76
    17.7400        74
    17.8000        66
    17.8600        72
    17.9200        74
    17.9800        66
    18.0400        72
    18.1000        48
    18.1600        80
    18.2200        56
    18.2800        68
    18.3400        70
    18.4000        72
    18.4600        72
    18.5200        86
    18.5800        66
    18.6400        78
    18.7000        82
    18.7600        96
    18.8200       122
    18.8800        88
    18.9400       118
    19.0000       146
    19.0600       194
    19.1200       176
    19.1800       172
    19.2400       190
    19.3000       150
    19.3600       146
    19.4200       160
    19.4800       154
    19.5400       148
    19.6000       128
    19.6600       132
    19.7200       132
    19.7800       118
    19.8400       116
    19.9000       128
    19.9600       116
    20.0200       120
    20.0800       116
    20.1400       118
    20.2000       112
    20.2600       126
    20.3200       120
    20.3800       116
    20.4400        86
    20.5000       114
    20.5600       116
    20.6200       128
    20.6800       114
    20.7400       104
    20.8000       108
    20.8600       106
    20.9200       120
    20.9800       118
    21.0400       110
    21.1000       110
    21.1600       130
    21.2200       100
    21.2800       104
    21.3400       136
    21.4000       118
    21.4600       122
    21.5200       128
    21.5800       104
    21.6400       114
    21.7000        94
    21.7600        90
    21.8200       132
    21.8800       106
    21.9400       104
    22.0000        94
    22.0600        90
    22.1200        98
    22.1800       116
    22.2400       112
    22.3000       122
    22.3600       116
    22.4200       102
    22.4800       138
    22.5400       112
    22.6000        92
    22.6600       120
    22.7200        90
    22.7800       112
    22.8400       124
    22.9000       112
    22.9600       104
    23.0200       108
    23.0800       128
    23.1400       110
    23.2000       118
    23.2600       126
    23.3200       108
    23.3800       140
    23.4400       136
    23.5000       128
    23.5600       116
    23.6200       122
    23.6800       122
    23.7400       128
    23.8000       134
    23.8600       128
    23.9200       114
    23.9800       132
    24.0400       148
    24.1000       116
    24.1600       150
    24.2200       130
    24.2800       152
    24.3400       136
    24.4000       110
    24.4600       134
    24.5200       140
    24.5800       136
    24.6400       146
    24.7000       132
    24.7600       138
    24.8200       118
    24.8800       162
    24.9400       156
    25.0000       132
    25.0600       142
    25.1200       138
    25.1800       124
    25.2400       118
    25.3000       136
    25.3600       106
    25.4200       134
    25.4800       122
    25.5400       122
    25.6000       142
    25.6600       142
    25.7200       134
    25.7800       120
    25.8400       124
    25.9000       130
    25.9600       134
    26.0200       120
    26.0800       132
    26.1400       146
    26.2000       116
    26.2600       142
    26.3200       140
    26.3800       150
    26.4400       136
    26.5000       144
    26.5600       144
    26.6200       146
    26.6800       116
    26.7400       130
    26.8000       118
    26.8600       132
    26.9200       152
    26.9800       142
    27.0400       142
    27.1000       138
    27.1600       140
    27.2200       108
    27.2800       140
    27.3400       134
    27.4000       140
    27.4600       162
    27.5200       142
    27.5800       136
    27.6400       138
    27.7000       148
    27.7600       140
    27.8200       132
    27.8800       130
    27.9400       118
    28.0000       150
    28.0600       124
    28.1200       130
    28.1800       138
    28.2400       126
    28.3000       152
    28.3600       140
    28.4200       154
    28.4800       128
    28.5400       114
    28.6000       124
    28.6600       128
    28.7200       132
    28.7800       116
    28.8400       158
    28.9000       162
    28.9600       124
    29.0200       138
    29.0800       130
    29.1400       162
    29.2000       142
    29.2600       148
    29.3200       144
    29.3800       150
    29.4400       146
    29.5000       158
    29.5600       120
    29.6200       146
    29.6800       136
    29.7400       104
    29.8000       144
    29.8600       130
    29.9200       140
    29.9800       136
    30.0400       138
    30.1000       128
    30.1600       126
    30.2200       114
    30.2800       152
    30.3400       138
    30.4000       118
    30.4600       128
    30.5200       122
    30.5800       114
    30.6400       112
    30.7000       118
    30.7600       104
    30.8200       132
    30.8800       116
    30.9400       130
    31.0000       104
    31.0600       120
    31.1200       102
    31.1800       114
    31.2400       100
    31.3000       112
    31.3600        86
    31.4200       104
    31.4800        82
    31.5400        80
    31.6000       106
    31.6600        98
    31.7200        96
    31.7800       108
    31.8400        80
    31.9000        84
    31.9600        90
    32.0200        82
    32.0800        92
    32.1400       102
    32.2000        78
    32.2600        98
    32.3200        82
    32.3800        90
    32.4400        80
    32.5000       100
    32.5600       100
    32.6200        94
    32.6800        82
    32.7400        82
    32.8000        86
    32.8600        84
    32.9200       118
    32.9800       110
    33.0400       100
    33.1000       102
    33.1600       122
    33.2200       148
    33.2800       148
    33.3400       204
    33.4000       244
    33.4600       284
    33.5200       296
    33.5800       334
    33.6400       314
    33.7000       316
    33.7600       278
    33.8200       288
    33.8800       308
    33.9400       290
    34.0000       296
    34.0600       264
    34.1200       312
    34.1800       294
    34.2400       278
    34.3000       250
    34.3600       278
    34.4200       272
    34.4800       292
    34.5400       294
    34.6000       270
    34.6600       272
    34.7200       266
    34.7800       286
    34.8400       246
    34.9000       258
    34.9600       256
    35.0200       244
    35.0800       270
    35.1400       264
    35.2000       280
    35.2600       262
    35.3200       246
    35.3800       270
    35.4400       272
    35.5000       272
    35.5600       260
    35.6200       254
    35.6800       246
    35.7400       228
    35.8000       234
    35.8600       248
    35.9200       284
    35.9800       268
    36.0400       270
    36.1000       240
    36.1600       280
    36.2200       232
    36.2800       240
    36.3400       240
    36.4000       248
    36.4600       260
    36.5200       248
    36.5800       216
    36.6400       246
    36.7000       226
    36.7600       238
    36.8200       218
    36.8800       214
    36.9400       204
    37.0000       224
    37.0600       208
    37.1200       212
    37.1800       222
    37.2400       232
    37.3000       218
    37.3600       196
    37.4200       200
    37.4800       200
    37.5400       190
    37.6000       194
    37.6600       200
    37.7200       194
    37.7800       196
    37.8400       204
    37.9000       212
    37.9600       200
    38.0200       180
    38.0800       190
    38.1400       210
    38.2000       180
    38.2600       194
    38.3200       188
    38.3800       172
    38.4400       186
    38.5000       182
    38.5600       188
    38.6200       188
    38.6800       186
    38.7400       174
    38.8000       200
    38.8600       172
    38.9200       176
    38.9800       184
    39.0400       152
    39.1000       206
    39.1600       182
    39.2200       166
    39.2800       158
    39.3400       148
    39.4000       172
    39.4600       142
    39.5200       162
    39.5800       136
    39.6400       150
    39.7000       146
    39.7600       190
    39.8200       164
    39.8800       148
    39.9400       176
    40.0000       156
    40.0600       160
    40.1200       170
    40.1800       154
    40.2400       156
    40.3000       152
    40.3600       156
    40.4200       162
    40.4800       172
    40.5400       168
    40.6000       178
    40.6600       148
    40.7200       148
    40.7800       148
    40.8400       150
    40.9000       142
    40.9600       124
    41.0200       162
    41.0800       138
    41.1400       134
    41.2000       154
    41.2600       146
    41.3200       126
    41.3800       132
    41.4400       124
    41.5000       110
    41.5600       124
    41.6200       144
    41.6800       120
    41.7400       140
    41.8000       126
    41.8600       120
    41.9200       124
    41.9800       126
    42.0400       112
    42.1000       122
    42.1600       152
    42.2200       124
    42.2800       128
    42.3400       136
    42.4000       120
    42.4600       126
    42.5200       122
    42.5800       118
    42.6400       116
    42.7000       134
    42.7600       118
    42.8200        96
    42.8800       102
    42.9400       114
    43.0000       148
    43.0600       130
    43.1200       106
    43.1800       102
    43.2400       122
    43.3000       112
    43.3600       116
    43.4200       110
    43.4800       120
    43.5400       122
    43.6000       136
    43.6600        90
    43.7200       114
    43.7800       106
    43.8400       110
    43.9000        88
    43.9600       100
    44.0200       130
    44.0800       120
    44.1400        88
    44.2000       118
    44.2600       122
    44.3200       106
    44.3800        92
    44.4400       132
    44.5000       106
    44.5600       104
    44.6200       114
    44.6800       104
    44.7400       100
    44.8000       106
    44.8600       100
    44.9200       100
    44.9800       124
    45.0400        86
    45.1000       110
    45.1600        96
    45.2200       104
    45.2800       110
    45.3400        88
    45.4000        92
    45.4600        92
    45.5200       102
    45.5800        88
    45.6400        98
    45.7000       120
    45.7600       102
    45.8200       106
    45.8800        90
    45.9400        98
    46.0000        78
    46.0600        88
    46.1200        90
    46.1800        86
    46.2400        86
    46.3000        86
    46.3600        84
    46.4200        90
    46.4800       108
    46.5400       100
    46.6000       100
    46.6600        88
    46.7200        72
    46.7800        82
    46.8400       100
    46.9000        92
    46.9600        86
    47.0200        78
    47.0800        84
    47.1400        86
    47.2000        88
    47.2600        88
    47.3200        84
    47.3800        70
    47.4400        78
    47.5000        80
    47.5600        76
    47.6200        76
    47.6800        92
    47.7400        68
    47.8000        80
    47.8600        94
    47.9200        86
    47.9800        80
    48.0400        84
    48.1000        82
    48.1600        82
    48.2200        92
    48.2800        76
    48.3400        86
    48.4000        64
    48.4600        92
    48.5200        88
    48.5800        82
    48.6400        92
    48.7000       104
    48.7600        68
    48.8200        74
    48.8800        90
    48.9400        78
    49.0000        76
    49.0600        98
    49.1200        80
    49.1800        86
    49.2400        74
    49.3000        82
    49.3600        84
    49.4200        82
    49.4800       102
    49.5400        90
    49.6000        86
    49.6600        82
    49.7200        66
    49.7800        62
    49.8400        92
    49.9000        90
    49.9600        88
    50.0200        80
    50.0800        70
    50.1400        80
    50.2000        76
    50.2600        84
    50.3200        92
    50.3800        78
    50.4400        80
    50.5000        88
    50.5600        78
    50.6200        80
    50.6800        80
    50.7400        76
    50.8000        84
    50.8600        84
    50.9200       100
    50.9800        86
    51.0400        68
    51.1000        70
    51.1600       102
    51.2200        92
    51.2800        74
    51.3400        70
    51.4000        72
    51.4600        72
    51.5200        90
    51.5800        80
    51.6400        76
    51.7000        94
    51.7600        86
    51.8200        82
    51.8800        90
    51.9400        76
    52.0000        82
    52.0600        96
    52.1200        94
    52.1800       110
    52.2400       102
    52.3000       108
    52.3600       112
    52.4200       112
    52.4800       120
    52.5400       110
    52.6000        98
    52.6600       122
    52.7200       110
    52.7800        94
    52.8400       104
    52.9000       100
    52.9600       100
    53.0200       108
    53.0800        84
    53.1400        94
    53.2000        94
    53.2600       106
    53.3200       108
    53.3800        90
    53.4400       120
    53.5000        90
    53.5600        90
    53.6200        94
    53.6800        92
    53.7400       112
    53.8000        94
    53.8600        98
    53.9200       122
    53.9800        86
    54.0400       104
    54.1000        98
    54.1600        94
    54.2200        84
    54.2800        94
    54.3400        96
    54.4000        98
    54.4600        92
    54.5200        90
    54.5800       100
    54.6400       102
    54.7000        80
    54.7600        98
    54.8200       100
    54.8800        86
    54.9400        92
    55.0000       104
    55.0600       106
    55.1200       104
    55.1800        90
    55.2400        90
    55.3000        96
    55.3600        94
    55.4200       102
    55.4800       106
    55.5400       114
    55.6000       104
    55.6600        82
    55.7200       112
    55.7800        96
    55.8400       114
    55.9000       108
    55.9600        88
    56.0200        90
    56.0800       116
    56.1400       106
    56.2000        90
    56.2600        80
    56.3200        90
    56.3800        92
    56.4400       124
    56.5000        86
    56.5600        94
    56.6200       116
    56.6800        78
    56.7400        94
    56.8000        94
    56.8600       102
    56.9200       116
    56.9800        94
    57.0400       100
    57.1000        76
    57.1600       106
    57.2200        90
    57.2800       116
    57.3400        82
    57.4000        94
    57.4600        88
    57.5200       102
    57.5800        92
    57.6400        88
    57.7000       100
    57.7600        74
    57.8200        90
    57.8800        92
    57.9400        98
    58.0000        94
    58.0600       100
    58.1200        82
    58.1800        84
    58.2400        90
    58.3000        94
    58.3600        64
    58.4200        94
    58.4800        96
    58.5400        96
    58.6000        94
    58.6600        90
    58.7200        82
    58.7800       102
    58.8400       100
    58.9000       100
    58.9600       112
    59.0200       100
    59.0800        82
    59.1400        88
    59.2000       108
    59.2600       108
    59.3200       118
    59.3800       128
    59.4400       106
    59.5000       168
    59.5600       178
    59.6200       216
    59.6800       222
    59.7400       302
    59.8000       330
    59.8600       394
    59.9200       412
    59.9800       408
    60.0400       384
    60.1000       362
    60.1600       336
    60.2200       306
    60.2800       300
    60.3400       240
    60.4000       230
    60.4600       214
    60.5200       152
    60.5800       186
    60.6400       180
    60.7000       174
    60.7600       152
    60.8200       152
    60.8800       146
    60.9400       154
    61.0000       124
    61.0600       134
    61.1200       146
    61.1800       132
    61.2400       120
    61.3000       136
    61.3600       128
    61.4200       136
    61.4800       110
    61.5400       104
    61.6000       132
    61.6600       102
    61.7200       102
    61.7800       132
    61.8400        98
    61.9000       118
    61.9600        96
    62.0200        96
    62.0800       102
    62.1400       108
    62.2000        88
    62.2600       104
    62.3200       118
    62.3800        98
    62.4400       102
    62.5000        86
    62.5600        84
    62.6200        86
    62.6800        84
    62.7400        94
    62.8000       102
    62.8600       104
    62.9200       106
    62.9800        78
    63.0400        78
    63.1000        94
    63.1600       108
    63.2200        86
    63.2800        78
    63.3400        98
    63.4000        98
    63.4600        88
    63.5200        82
    63.5800        74
    63.6400        80
    63.7000        92
    63.7600        84
    63.8200        82
    63.8800        82
    63.9400        92
    64.0000        90
    64.0600        94
    64.1200        94
    64.1800        82
    64.2400        76
    64.3000        94
    64.3600        80
    64.4200        86
    64.4800        74
    64.5400        96
    64.6000        86
    64.6600        88
    64.7200        84
    64.7800        94
    64.8400        84
    64.9000        88
    64.9600       102
    65.0000        86