File: sl1/usgs/library06/DESCRIPT/new_xrd_results_to_be_added/Rhonda_Driscoll_xrd_runs/GDS25---Butlerite.txt
/////////////////////////////////////////////////////////////////////////////////
/// Profile Data Ascii Dump (XRD)                                             ///
/////////////////////////////////////////////////////////////////////////////////

  Group     : Swayze
  Data      : GDS25
  File Name : GDS25.RAW

# Profile Datafile
          comment             = Butlerite
          date & time         = 08-03-27 06:45:47

# Measurement Condition
    X-ray tube
          target              = Cu
          voltage             = 40.0 (kV)
          current             = 30.0 (mA)
    Slits
          divergence slit     = 2.00000 (deg)
          scatter slit        = 2.00000 (deg)
          receiving slit      = 0.15000 (mm)
    Scanning
          drive axis          = Theta-2Theta
          scan range          =    4.000 -   65.000
          scan mode           = Continuous Scan
          scan speed          =   2.0000 (deg/min)
          sampling pitch      =   0.0200 (deg)
          preset time         =   0.60 (sec)

# Data      [ Total No. = 3051 ]
  <2Theta>   <   I   >
     4.0000       202
     4.0600       202
     4.1200       176
     4.1800       188
     4.2400       186
     4.3000       182
     4.3600       168
     4.4200       182
     4.4800       168
     4.5400       172
     4.6000       152
     4.6600       164
     4.7200       148
     4.7800       142
     4.8400       160
     4.9000       180
     4.9600       164
     5.0200       154
     5.0800       128
     5.1400       158
     5.2000       162
     5.2600       174
     5.3200       150
     5.3800       158
     5.4400       128
     5.5000       148
     5.5600       162
     5.6200       144
     5.6800       134
     5.7400       116
     5.8000       152
     5.8600       140
     5.9200       140
     5.9800       154
     6.0400       150
     6.1000       142
     6.1600       156
     6.2200       134
     6.2800       154
     6.3400       130
     6.4000       126
     6.4600       110
     6.5200       136
     6.5800       136
     6.6400       124
     6.7000       138
     6.7600       154
     6.8200       112
     6.8800       118
     6.9400       124
     7.0000       100
     7.0600       134
     7.1200       118
     7.1800       116
     7.2400       102
     7.3000       126
     7.3600       108
     7.4200        94
     7.4800       120
     7.5400       112
     7.6000       118
     7.6600       110
     7.7200       102
     7.7800       100
     7.8400        94
     7.9000       120
     7.9600       120
     8.0200       108
     8.0800       106
     8.1400       106
     8.2000       116
     8.2600        98
     8.3200       120
     8.3800       106
     8.4400        98
     8.5000        98
     8.5600       124
     8.6200       108
     8.6800       130
     8.7400       114
     8.8000       120
     8.8600       112
     8.9200       128
     8.9800       110
     9.0400       124
     9.1000       100
     9.1600       120
     9.2200       112
     9.2800       102
     9.3400       112
     9.4000       108
     9.4600       112
     9.5200       122
     9.5800       120
     9.6400       104
     9.7000       100
     9.7600       110
     9.8200       126
     9.8800       114
     9.9400        92
    10.0000        90
    10.0600       118
    10.1200        92
    10.1800       102
    10.2400        94
    10.3000       100
    10.3600       122
    10.4200       102
    10.4800        90
    10.5400        88
    10.6000        92
    10.6600       112
    10.7200       108
    10.7800        96
    10.8400        96
    10.9000       102
    10.9600       106
    11.0200        98
    11.0800        86
    11.1400       102
    11.2000        96
    11.2600        92
    11.3200        82
    11.3800        88
    11.4400        88
    11.5000        70
    11.5600        84
    11.6200        82
    11.6800        86
    11.7400        76
    11.8000        68
    11.8600        98
    11.9200        84
    11.9800        80
    12.0400        86
    12.1000        76
    12.1600        80
    12.2200        78
    12.2800        70
    12.3400        74
    12.4000        78
    12.4600        72
    12.5200        72
    12.5800        70
    12.6400        90
    12.7000        74
    12.7600        80
    12.8200        82
    12.8800        70
    12.9400        66
    13.0000        62
    13.0600        62
    13.1200        78
    13.1800        68
    13.2400        76
    13.3000        60
    13.3600        68
    13.4200        60
    13.4800        98
    13.5400        70
    13.6000        74
    13.6600        70
    13.7200        62
    13.7800        70
    13.8400        78
    13.9000        76
    13.9600        74
    14.0200        78
    14.0800       102
    14.1400       118
    14.2000       120
    14.2600       134
    14.3200       102
    14.3800        76
    14.4400        70
    14.5000        66
    14.5600        68
    14.6200        68
    14.6800        68
    14.7400        68
    14.8000        68
    14.8600        70
    14.9200        66
    14.9800        58
    15.0400        64
    15.1000        66
    15.1600        52
    15.2200        68
    15.2800        84
    15.3400        56
    15.4000        80
    15.4600        72
    15.5200        80
    15.5800        70
    15.6400        68
    15.7000        76
    15.7600       106
    15.8200       124
    15.8800       176
    15.9400       132
    16.0000        90
    16.0600        78
    16.1200        54
    16.1800        66
    16.2400        68
    16.3000        58
    16.3600        64
    16.4200        64
    16.4800        62
    16.5400        54
    16.6000        64
    16.6600        64
    16.7200        64
    16.7800        50
    16.8400        64
    16.9000        70
    16.9600        76
    17.0200        64
    17.0800        72
    17.1400        78
    17.2000       106
    17.2600       108
    17.3200       130
    17.3800       138
    17.4400       226
    17.5000       334
    17.5600       590
    17.6200       942
    17.6800      1088
    17.7400       572
    17.8000       178
    17.8600       104
    17.9200        86
    17.9800        74
    18.0400        62
    18.1000        60
    18.1600        56
    18.2200        62
    18.2800        58
    18.3400        68
    18.4000        74
    18.4600        94
    18.5200       112
    18.5800       166
    18.6400       188
    18.7000       148
    18.7600        74
    18.8200        54
    18.8800        40
    18.9400        42
    19.0000        60
    19.0600        76
    19.1200        52
    19.1800        44
    19.2400        50
    19.3000        50
    19.3600        42
    19.4200        52
    19.4800        58
    19.5400        64
    19.6000        58
    19.6600        72
    19.7200        82
    19.7800       114
    19.8400       126
    19.9000       204
    19.9600       204
    20.0200       114
    20.0800        72
    20.1400        82
    20.2000        50
    20.2600        58
    20.3200        54
    20.3800        38
    20.4400        42
    20.5000        50
    20.5600        42
    20.6200        42
    20.6800        42
    20.7400        48
    20.8000        50
    20.8600        58
    20.9200        68
    20.9800        42
    21.0400        52
    21.1000        48
    21.1600        62
    21.2200        46
    21.2800        52
    21.3400        56
    21.4000        60
    21.4600        40
    21.5200        60
    21.5800        52
    21.6400        44
    21.7000        36
    21.7600        54
    21.8200        38
    21.8800        54
    21.9400        42
    22.0000        46
    22.0600        38
    22.1200        72
    22.1800        54
    22.2400        48
    22.3000        52
    22.3600        48
    22.4200        44
    22.4800        52
    22.5400        52
    22.6000        60
    22.6600        58
    22.7200        60
    22.7800        46
    22.8400        50
    22.9000        38
    22.9600        52
    23.0200        50
    23.0800        42
    23.1400        38
    23.2000        38
    23.2600        44
    23.3200        38
    23.3800        56
    23.4400        42
    23.5000        44
    23.5600        42
    23.6200        46
    23.6800        44
    23.7400        48
    23.8000        56
    23.8600        56
    23.9200        58
    23.9800        70
    24.0400        86
    24.1000        80
    24.1600        38
    24.2200        42
    24.2800        54
    24.3400        60
    24.4000        66
    24.4600        96
    24.5200       142
    24.5800       186
    24.6400       214
    24.7000       176
    24.7600        84
    24.8200        58
    24.8800        58
    24.9400        40
    25.0000        46
    25.0600        38
    25.1200        60
    25.1800        64
    25.2400        62
    25.3000        58
    25.3600        38
    25.4200        50
    25.4800        46
    25.5400        38
    25.6000        48
    25.6600        40
    25.7200        42
    25.7800        44
    25.8400        46
    25.9000        58
    25.9600        48
    26.0200        44
    26.0800        52
    26.1400        44
    26.2000        52
    26.2600        54
    26.3200        40
    26.3800        40
    26.4400        40
    26.5000        46
    26.5600        46
    26.6200        44
    26.6800        44
    26.7400        46
    26.8000        38
    26.8600        46
    26.9200        40
    26.9800        50
    27.0400        48
    27.1000        68
    27.1600        62
    27.2200        80
    27.2800        82
    27.3400       110
    27.4000       190
    27.4600       236
    27.5200       180
    27.5800       112
    27.6400        68
    27.7000        84
    27.7600       106
    27.8200       140
    27.8800       256
    27.9400       432
    28.0000       856
    28.0600      1084
    28.1200       934
    28.1800       436
    28.2400       188
    28.3000        92
    28.3600        76
    28.4200        76
    28.4800        56
    28.5400        74
    28.6000        82
    28.6600        74
    28.7200       102
    28.7800       170
    28.8400       222
    28.9000       372
    28.9600       444
    29.0200       416
    29.0800       218
    29.1400        98
    29.2000        60
    29.2600        46
    29.3200        40
    29.3800        40
    29.4400        44
    29.5000        44
    29.5600        40
    29.6200        36
    29.6800        40
    29.7400        42
    29.8000        46
    29.8600        48
    29.9200        54
    29.9800        50
    30.0400        54
    30.1000        50
    30.1600        50
    30.2200        50
    30.2800        40
    30.3400        56
    30.4000        54
    30.4600        48
    30.5200        50
    30.5800        64
    30.6400        82
    30.7000        94
    30.7600        92
    30.8200        70
    30.8800        54
    30.9400        54
    31.0000        56
    31.0600        50
    31.1200        78
    31.1800       122
    31.2400       110
    31.3000       104
    31.3600        70
    31.4200        48
    31.4800        44
    31.5400        40
    31.6000        42
    31.6600        36
    31.7200        34
    31.7800        44
    31.8400        36
    31.9000        34
    31.9600        46
    32.0200        30
    32.0800        42
    32.1400        50
    32.2000        54
    32.2600        46
    32.3200        44
    32.3800        42
    32.4400        38
    32.5000        42
    32.5600        40
    32.6200        48
    32.6800        38
    32.7400        34
    32.8000        36
    32.8600        38
    32.9200        44
    32.9800        46
    33.0400        50
    33.1000        42
    33.1600        42
    33.2200        50
    33.2800        38
    33.3400        40
    33.4000        46
    33.4600        46
    33.5200        48
    33.5800        30
    33.6400        40
    33.7000        30
    33.7600        38
    33.8200        32
    33.8800        34
    33.9400        26
    34.0000        50
    34.0600        60
    34.1200        48
    34.1800        28
    34.2400        46
    34.3000        58
    34.3600        72
    34.4200        86
    34.4800        66
    34.5400        72
    34.6000        82
    34.6600        92
    34.7200       116
    34.7800        98
    34.8400        60
    34.9000        42
    34.9600        50
    35.0200        52
    35.0800        34
    35.1400        34
    35.2000        36
    35.2600        34
    35.3200        48
    35.3800        54
    35.4400        50
    35.5000        42
    35.5600        52
    35.6200        72
    35.6800       114
    35.7400       186
    35.8000       280
    35.8600       322
    35.9200       246
    35.9800       112
    36.0400        72
    36.1000        42
    36.1600        44
    36.2200        40
    36.2800        32
    36.3400        42
    36.4000        32
    36.4600        34
    36.5200        34
    36.5800        36
    36.6400        36
    36.7000        52
    36.7600        44
    36.8200        42
    36.8800        44
    36.9400        48
    37.0000        40
    37.0600        34
    37.1200        58
    37.1800        60
    37.2400        82
    37.3000       110
    37.3600       152
    37.4200       134
    37.4800        96
    37.5400        56
    37.6000        38
    37.6600        44
    37.7200        62
    37.7800        42
    37.8400        50
    37.9000        60
    37.9600        54
    38.0200        64
    38.0800        30
    38.1400        38
    38.2000        34
    38.2600        34
    38.3200        28
    38.3800        40
    38.4400        42
    38.5000        50
    38.5600        40
    38.6200        38
    38.6800        42
    38.7400        38
    38.8000        36
    38.8600        34
    38.9200        30
    38.9800        28
    39.0400        44
    39.1000        40
    39.1600        38
    39.2200        48
    39.2800        88
    39.3400        86
    39.4000        82
    39.4600       100
    39.5200       102
    39.5800        54
    39.6400        44
    39.7000        38
    39.7600        40
    39.8200        24
    39.8800        42
    39.9400        32
    40.0000        36
    40.0600        30
    40.1200        22
    40.1800        30
    40.2400        32
    40.3000        40
    40.3600        36
    40.4200        32
    40.4800        44
    40.5400        44
    40.6000        48
    40.6600        52
    40.7200        48
    40.7800        32
    40.8400        28
    40.9000        48
    40.9600        44
    41.0200        36
    41.0800        44
    41.1400        30
    41.2000        42
    41.2600        30
    41.3200        40
    41.3800        54
    41.4400        56
    41.5000        42
    41.5600        30
    41.6200        34
    41.6800        42
    41.7400        44
    41.8000        44
    41.8600        40
    41.9200        54
    41.9800        52
    42.0400        40
    42.1000        26
    42.1600        34
    42.2200        36
    42.2800        42
    42.3400        28
    42.4000        28
    42.4600        32
    42.5200        30
    42.5800        32
    42.6400        34
    42.7000        48
    42.7600        34
    42.8200        34
    42.8800        30
    42.9400        24
    43.0000        36
    43.0600        32
    43.1200        44
    43.1800        44
    43.2400        54
    43.3000        68
    43.3600        78
    43.4200        60
    43.4800        54
    43.5400        64
    43.6000        78
    43.6600        80
    43.7200        80
    43.7800        76
    43.8400        52
    43.9000        34
    43.9600        46
    44.0200        42
    44.0800        30
    44.1400        44
    44.2000        34
    44.2600        38
    44.3200        40
    44.3800        60
    44.4400        46
    44.5000        60
    44.5600        50
    44.6200        66
    44.6800        44
    44.7400        44
    44.8000        38
    44.8600        44
    44.9200        76
    44.9800       102
    45.0400        82
    45.1000        66
    45.1600        48
    45.2200        42
    45.2800        54
    45.3400        40
    45.4000        54
    45.4600        48
    45.5200        66
    45.5800        76
    45.6400        72
    45.7000        74
    45.7600        68
    45.8200        42
    45.8800        54
    45.9400        36
    46.0000        56
    46.0600        40
    46.1200        42
    46.1800        40
    46.2400        34
    46.3000        50
    46.3600        44
    46.4200        46
    46.4800        52
    46.5400        42
    46.6000        44
    46.6600        36
    46.7200        48
    46.7800        56
    46.8400        50
    46.9000        76
    46.9600        50
    47.0200        60
    47.0800        74
    47.1400        86
    47.2000        70
    47.2600        72
    47.3200        66
    47.3800        54
    47.4400        40
    47.5000        44
    47.5600        42
    47.6200        38
    47.6800        34
    47.7400        34
    47.8000        34
    47.8600        26
    47.9200        40
    47.9800        38
    48.0400        38
    48.1000        54
    48.1600        52
    48.2200        56
    48.2800        48
    48.3400        62
    48.4000        58
    48.4600        86
    48.5200        88
    48.5800        90
    48.6400        74
    48.7000        68
    48.7600        46
    48.8200        50
    48.8800        48
    48.9400        58
    49.0000        60
    49.0600        74
    49.1200       102
    49.1800       112
    49.2400       176
    49.3000       256
    49.3600       214
    49.4200       162
    49.4800       118
    49.5400        60
    49.6000        56
    49.6600        42
    49.7200        22
    49.7800        34
    49.8400        34
    49.9000        26
    49.9600        28
    50.0200        26
    50.0800        26
    50.1400        50
    50.2000        46
    50.2600        36
    50.3200        30
    50.3800        40
    50.4400        36
    50.5000        52
    50.5600        60
    50.6200        66
    50.6800        62
    50.7400        50
    50.8000        60
    50.8600        40
    50.9200        38
    50.9800        52
    51.0400        36
    51.1000        24
    51.1600        32
    51.2200        42
    51.2800        24
    51.3400        40
    51.4000        34
    51.4600        38
    51.5200        42
    51.5800        52
    51.6400        52
    51.7000        56
    51.7600        42
    51.8200        56
    51.8800        50
    51.9400        64
    52.0000        66
    52.0600        84
    52.1200       102
    52.1800       148
    52.2400       116
    52.3000       106
    52.3600        80
    52.4200        80
    52.4800        58
    52.5400        50
    52.6000        46
    52.6600        58
    52.7200        74
    52.7800       138
    52.8400       124
    52.9000       130
    52.9600       104
    53.0200        86
    53.0800        66
    53.1400        54
    53.2000        46
    53.2600        42
    53.3200        40
    53.3800        28
    53.4400        38
    53.5000        40
    53.5600        40
    53.6200        36
    53.6800        38
    53.7400        34
    53.8000        40
    53.8600        30
    53.9200        34
    53.9800        30
    54.0400        32
    54.1000        30
    54.1600        38
    54.2200        32
    54.2800        44
    54.3400        24
    54.4000        44
    54.4600        28
    54.5200        40
    54.5800        32
    54.6400        38
    54.7000        44
    54.7600        58
    54.8200        66
    54.8800        84
    54.9400        84
    55.0000       114
    55.0600        82
    55.1200        66
    55.1800        60
    55.2400        50
    55.3000        46
    55.3600        34
    55.4200        48
    55.4800        46
    55.5400        42
    55.6000        38
    55.6600        42
    55.7200        44
    55.7800        76
    55.8400        94
    55.9000       150
    55.9600       114
    56.0200        96
    56.0800       102
    56.1400        52
    56.2000        50
    56.2600        68
    56.3200        72
    56.3800        76
    56.4400        68
    56.5000        64
    56.5600        56
    56.6200        46
    56.6800        68
    56.7400        80
    56.8000        92
    56.8600        78
    56.9200        62
    56.9800        54
    57.0400        42
    57.1000        34
    57.1600        22
    57.2200        36
    57.2800        38
    57.3400        40
    57.4000        34
    57.4600        36
    57.5200        34
    57.5800        36
    57.6400        34
    57.7000        36
    57.7600        46
    57.8200        68
    57.8800        74
    57.9400        60
    58.0000        84
    58.0600       100
    58.1200       108
    58.1800       104
    58.2400        80
    58.3000        86
    58.3600        62
    58.4200        44
    58.4800        40
    58.5400        38
    58.6000        38
    58.6600        32
    58.7200        38
    58.7800        36
    58.8400        28
    58.9000        36
    58.9600        30
    59.0200        24
    59.0800        40
    59.1400        42
    59.2000        58
    59.2600        60
    59.3200        52
    59.3800        42
    59.4400        46
    59.5000        42
    59.5600        44
    59.6200        60
    59.6800        48
    59.7400        40
    59.8000        34
    59.8600        38
    59.9200        38
    59.9800        52
    60.0400        40
    60.1000        50
    60.1600        56
    60.2200        46
    60.2800        32
    60.3400        38
    60.4000        38
    60.4600        48
    60.5200        38
    60.5800        26
    60.6400        36
    60.7000        34
    60.7600        36
    60.8200        32
    60.8800        26
    60.9400        32
    61.0000        30
    61.0600        38
    61.1200        18
    61.1800        30
    61.2400        30
    61.3000        28
    61.3600        30
    61.4200        34
    61.4800        28
    61.5400        36
    61.6000        28
    61.6600        32
    61.7200        36
    61.7800        40
    61.8400        56
    61.9000        50
    61.9600        50
    62.0200        48
    62.0800        56
    62.1400        52
    62.2000        58
    62.2600        40
    62.3200        46
    62.3800        68
    62.4400        42
    62.5000        70
    62.5600        54
    62.6200        52
    62.6800        44
    62.7400        36
    62.8000        32
    62.8600        28
    62.9200        36
    62.9800        44
    63.0400        34
    63.1000        40
    63.1600        28
    63.2200        40
    63.2800        20
    63.3400        20
    63.4000        46
    63.4600        70
    63.5200        60
    63.5800        72
    63.6400        46
    63.7000        68
    63.7600        60
    63.8200        58
    63.8800        56
    63.9400        62
    64.0000        52
    64.0600        42
    64.1200        48
    64.1800        38
    64.2400        26
    64.3000        34
    64.3600        24
    64.4200        30
    64.4800        22
    64.5400        44
    64.6000        34
    64.6600        30
    64.7200        34
    64.7800        42
    64.8400        50
    64.9000        52
    64.9600        46
    65.0000        60