File: sl1/usgs/library06/DESCRIPT/new_xrd_results_to_be_added/Rhonda_Driscoll_xrd_runs/GDS209---SynAluniteH30-200C.txt
/////////////////////////////////////////////////////////////////////////////////
/// Profile Data Ascii Dump (XRD)                                             ///
/////////////////////////////////////////////////////////////////////////////////

  Group     : Swayze
  Data      : GDS209
  File Name : GDS209.RAW

# Profile Datafile
          comment             = SynAluniteH30-200C
          date & time         = 08-03-27 07:16:41

# Measurement Condition
    X-ray tube
          target              = Cu
          voltage             = 40.0 (kV)
          current             = 30.0 (mA)
    Slits
          divergence slit     = 2.00000 (deg)
          scatter slit        = 2.00000 (deg)
          receiving slit      = 0.15000 (mm)
    Scanning
          drive axis          = Theta-2Theta
          scan range          =    4.000 -   65.000
          scan mode           = Continuous Scan
          scan speed          =   2.0000 (deg/min)
          sampling pitch      =   0.0200 (deg)
          preset time         =   0.60 (sec)

# Data      [ Total No. = 3051 ]
  <2Theta>   <   I   >
     4.0000       198
     4.0600       202
     4.1200       158
     4.1800       208
     4.2400       192
     4.3000       166
     4.3600       164
     4.4200       188
     4.4800       140
     4.5400       154
     4.6000       150
     4.6600       152
     4.7200       154
     4.7800       142
     4.8400       170
     4.9000       144
     4.9600       138
     5.0200       174
     5.0800       180
     5.1400       126
     5.2000       154
     5.2600       142
     5.3200       144
     5.3800       150
     5.4400       166
     5.5000       144
     5.5600       146
     5.6200       154
     5.6800       168
     5.7400       152
     5.8000       142
     5.8600       168
     5.9200       160
     5.9800       152
     6.0400       164
     6.1000       150
     6.1600       128
     6.2200       150
     6.2800       140
     6.3400       146
     6.4000       146
     6.4600       136
     6.5200       140
     6.5800       116
     6.6400       118
     6.7000       128
     6.7600       142
     6.8200       138
     6.8800       116
     6.9400       118
     7.0000       122
     7.0600       120
     7.1200       120
     7.1800       112
     7.2400       112
     7.3000       114
     7.3600       120
     7.4200       122
     7.4800       138
     7.5400       110
     7.6000        86
     7.6600       136
     7.7200       104
     7.7800       110
     7.8400       134
     7.9000       110
     7.9600       122
     8.0200       116
     8.0800       110
     8.1400       106
     8.2000       110
     8.2600       110
     8.3200       106
     8.3800       118
     8.4400       112
     8.5000        96
     8.5600       108
     8.6200        98
     8.6800       108
     8.7400       122
     8.8000       118
     8.8600       106
     8.9200       108
     8.9800       118
     9.0400       122
     9.1000       120
     9.1600       124
     9.2200       100
     9.2800       102
     9.3400       108
     9.4000       104
     9.4600       120
     9.5200       116
     9.5800       104
     9.6400       108
     9.7000       116
     9.7600       104
     9.8200       138
     9.8800       128
     9.9400       132
    10.0000       110
    10.0600       112
    10.1200        94
    10.1800       100
    10.2400       124
    10.3000       100
    10.3600        98
    10.4200       126
    10.4800        98
    10.5400       104
    10.6000        80
    10.6600       110
    10.7200        94
    10.7800        90
    10.8400       102
    10.9000        96
    10.9600        80
    11.0200        86
    11.0800       100
    11.1400       102
    11.2000        78
    11.2600        84
    11.3200        68
    11.3800       104
    11.4400        78
    11.5000        82
    11.5600        88
    11.6200        82
    11.6800        76
    11.7400        90
    11.8000        82
    11.8600        88
    11.9200        82
    11.9800        64
    12.0400        88
    12.1000        90
    12.1600        74
    12.2200        86
    12.2800        80
    12.3400        72
    12.4000        62
    12.4600        96
    12.5200        86
    12.5800        70
    12.6400        76
    12.7000        64
    12.7600        68
    12.8200        70
    12.8800        84
    12.9400        72
    13.0000        66
    13.0600        64
    13.1200        74
    13.1800        70
    13.2400        68
    13.3000        72
    13.3600        60
    13.4200        62
    13.4800        68
    13.5400        70
    13.6000        66
    13.6600        60
    13.7200        54
    13.7800        76
    13.8400        74
    13.9000        60
    13.9600        56
    14.0200        56
    14.0800        56
    14.1400        66
    14.2000        56
    14.2600        74
    14.3200        66
    14.3800        56
    14.4400        50
    14.5000        56
    14.5600        64
    14.6200        72
    14.6800        50
    14.7400        58
    14.8000        62
    14.8600        60
    14.9200        76
    14.9800        54
    15.0400        64
    15.1000        66
    15.1600        80
    15.2200        96
    15.2800       104
    15.3400       156
    15.4000       176
    15.4600       202
    15.5200       138
    15.5800        82
    15.6400        76
    15.7000        68
    15.7600        56
    15.8200        60
    15.8800        62
    15.9400        54
    16.0000        54
    16.0600        52
    16.1200        52
    16.1800        40
    16.2400        64
    16.3000        62
    16.3600        46
    16.4200        56
    16.4800        62
    16.5400        66
    16.6000        34
    16.6600        58
    16.7200        56
    16.7800        60
    16.8400        56
    16.9000        64
    16.9600        68
    17.0200        66
    17.0800        70
    17.1400        62
    17.2000        68
    17.2600        78
    17.3200        80
    17.3800       104
    17.4400       108
    17.5000       140
    17.5600       176
    17.6200       244
    17.6800       360
    17.7400       638
    17.8000      1118
    17.8600      1016
    17.9200       696
    17.9800       392
    18.0400       194
    18.1000       106
    18.1600        76
    18.2200        84
    18.2800        58
    18.3400        50
    18.4000        54
    18.4600        44
    18.5200        50
    18.5800        42
    18.6400        46
    18.7000        48
    18.7600        50
    18.8200        54
    18.8800        54
    18.9400        50
    19.0000        46
    19.0600        48
    19.1200        48
    19.1800        50
    19.2400        60
    19.3000        68
    19.3600        52
    19.4200        48
    19.4800        56
    19.5400        66
    19.6000        58
    19.6600        36
    19.7200        42
    19.7800        50
    19.8400        32
    19.9000        46
    19.9600        52
    20.0200        54
    20.0800        58
    20.1400        64
    20.2000        46
    20.2600        38
    20.3200        34
    20.3800        48
    20.4400        42
    20.5000        50
    20.5600        40
    20.6200        54
    20.6800        50
    20.7400        38
    20.8000        50
    20.8600        34
    20.9200        54
    20.9800        50
    21.0400        40
    21.1000        44
    21.1600        40
    21.2200        46
    21.2800        38
    21.3400        42
    21.4000        50
    21.4600        40
    21.5200        34
    21.5800        56
    21.6400        48
    21.7000        32
    21.7600        34
    21.8200        50
    21.8800        46
    21.9400        42
    22.0000        50
    22.0600        38
    22.1200        48
    22.1800        26
    22.2400        52
    22.3000        42
    22.3600        36
    22.4200        52
    22.4800        40
    22.5400        38
    22.6000        42
    22.6600        62
    22.7200        28
    22.7800        46
    22.8400        38
    22.9000        38
    22.9600        52
    23.0200        32
    23.0800        34
    23.1400        34
    23.2000        26
    23.2600        34
    23.3200        40
    23.3800        30
    23.4400        46
    23.5000        28
    23.5600        28
    23.6200        30
    23.6800        42
    23.7400        38
    23.8000        46
    23.8600        30
    23.9200        32
    23.9800        34
    24.0400        44
    24.1000        36
    24.1600        40
    24.2200        38
    24.2800        34
    24.3400        36
    24.4000        32
    24.4600        44
    24.5200        32
    24.5800        34
    24.6400        40
    24.7000        42
    24.7600        40
    24.8200        28
    24.8800        32
    24.9400        38
    25.0000        48
    25.0600        62
    25.1200        86
    25.1800       108
    25.2400       204
    25.3000       284
    25.3600       320
    25.4200       216
    25.4800       138
    25.5400        60
    25.6000        54
    25.6600        58
    25.7200        54
    25.7800        38
    25.8400        30
    25.9000        44
    25.9600        34
    26.0200        26
    26.0800        32
    26.1400        34
    26.2000        38
    26.2600        30
    26.3200        44
    26.3800        36
    26.4400        28
    26.5000        28
    26.5600        30
    26.6200        38
    26.6800        28
    26.7400        42
    26.8000        38
    26.8600        42
    26.9200        44
    26.9800        42
    27.0400        32
    27.1000        50
    27.1600        30
    27.2200        36
    27.2800        26
    27.3400        24
    27.4000        34
    27.4600        30
    27.5200        44
    27.5800        34
    27.6400        22
    27.7000        30
    27.7600        22
    27.8200        36
    27.8800        48
    27.9400        34
    28.0000        40
    28.0600        40
    28.1200        26
    28.1800        40
    28.2400        38
    28.3000        34
    28.3600        28
    28.4200        42
    28.4800        34
    28.5400        34
    28.6000        36
    28.6600        40
    28.7200        42
    28.7800        40
    28.8400        34
    28.9000        40
    28.9600        36
    29.0200        34
    29.0800        40
    29.1400        36
    29.2000        36
    29.2600        42
    29.3200        64
    29.3800        76
    29.4400        74
    29.5000       114
    29.5600       174
    29.6200       306
    29.6800       620
    29.7400      1308
    29.8000      1908
    29.8600      2008
    29.9200      1340
    29.9800       802
    30.0400       412
    30.1000       230
    30.1600       120
    30.2200        82
    30.2800        46
    30.3400        42
    30.4000        36
    30.4600        36
    30.5200        38
    30.5800        44
    30.6400        32
    30.7000        38
    30.7600        40
    30.8200        24
    30.8800        42
    30.9400        38
    31.0000        56
    31.0600        50
    31.1200        86
    31.1800       116
    31.2400       114
    31.3000       116
    31.3600        80
    31.4200        52
    31.4800        42
    31.5400        32
    31.6000        34
    31.6600        36
    31.7200        38
    31.7800        20
    31.8400        40
    31.9000        28
    31.9600        28
    32.0200        26
    32.0800        34
    32.1400        22
    32.2000        36
    32.2600        34
    32.3200        28
    32.3800        22
    32.4400        40
    32.5000        30
    32.5600        26
    32.6200        22
    32.6800        24
    32.7400        18
    32.8000        38
    32.8600        24
    32.9200        26
    32.9800        36
    33.0400        28
    33.1000        28
    33.1600        26
    33.2200        34
    33.2800        20
    33.3400        28
    33.4000        28
    33.4600        26
    33.5200        28
    33.5800        28
    33.6400        26
    33.7000        26
    33.7600        24
    33.8200        28
    33.8800        22
    33.9400        36
    34.0000        24
    34.0600        30
    34.1200        24
    34.1800        26
    34.2400        24
    34.3000        20
    34.3600        28
    34.4200        16
    34.4800        26
    34.5400        28
    34.6000        34
    34.6600        28
    34.7200        24
    34.7800        22
    34.8400        32
    34.9000        32
    34.9600        28
    35.0200        32
    35.0800        28
    35.1400        26
    35.2000        24
    35.2600        38
    35.3200        30
    35.3800        34
    35.4400        26
    35.5000        28
    35.5600        28
    35.6200        20
    35.6800        34
    35.7400        24
    35.8000        34
    35.8600        24
    35.9200        32
    35.9800        32
    36.0400        40
    36.1000        56
    36.1600        60
    36.2200        54
    36.2800        56
    36.3400        32
    36.4000        34
    36.4600        24
    36.5200        18
    36.5800        30
    36.6400        36
    36.7000        32
    36.7600        28
    36.8200        30
    36.8800        32
    36.9400        28
    37.0000        28
    37.0600        18
    37.1200        22
    37.1800        20
    37.2400        26
    37.3000        22
    37.3600        14
    37.4200        34
    37.4800        26
    37.5400        30
    37.6000        24
    37.6600        26
    37.7200        30
    37.7800        30
    37.8400        34
    37.9000        20
    37.9600        26
    38.0200        22
    38.0800        28
    38.1400        30
    38.2000        30
    38.2600        18
    38.3200        26
    38.3800        26
    38.4400        34
    38.5000        24
    38.5600        38
    38.6200        20
    38.6800        28
    38.7400        26
    38.8000        38
    38.8600        28
    38.9200        40
    38.9800        32
    39.0400        32
    39.1000        34
    39.1600        26
    39.2200        38
    39.2800        50
    39.3400        58
    39.4000        78
    39.4600       152
    39.5200       316
    39.5800       480
    39.6400       428
    39.7000       406
    39.7600       246
    39.8200       118
    39.8800        78
    39.9400        72
    40.0000        62
    40.0600        52
    40.1200        52
    40.1800        34
    40.2400        46
    40.3000        30
    40.3600        42
    40.4200        34
    40.4800        48
    40.5400        62
    40.6000        90
    40.6600        88
    40.7200        70
    40.7800        38
    40.8400        30
    40.9000        36
    40.9600        28
    41.0200        18
    41.0800        36
    41.1400        22
    41.2000        22
    41.2600        24
    41.3200        36
    41.3800        26
    41.4400        22
    41.5000        24
    41.5600        42
    41.6200        22
    41.6800        26
    41.7400        24
    41.8000        36
    41.8600        14
    41.9200        30
    41.9800        22
    42.0400        16
    42.1000        40
    42.1600        24
    42.2200        26
    42.2800        26
    42.3400        20
    42.4000        24
    42.4600        26
    42.5200        18
    42.5800        28
    42.6400        20
    42.7000        26
    42.7600        24
    42.8200        18
    42.8800        26
    42.9400        22
    43.0000        20
    43.0600        20
    43.1200        32
    43.1800        20
    43.2400        36
    43.3000        18
    43.3600        24
    43.4200        34
    43.4800        28
    43.5400        22
    43.6000        28
    43.6600        26
    43.7200        26
    43.7800        26
    43.8400        20
    43.9000        28
    43.9600        24
    44.0200        24
    44.0800        32
    44.1400        18
    44.2000        20
    44.2600        24
    44.3200        20
    44.3800        28
    44.4400        28
    44.5000        26
    44.5600        26
    44.6200        24
    44.6800        24
    44.7400        34
    44.8000        24
    44.8600        16
    44.9200        24
    44.9800        40
    45.0400        18
    45.1000        34
    45.1600        22
    45.2200        32
    45.2800        14
    45.3400        16
    45.4000        24
    45.4600        32
    45.5200        24
    45.5800        18
    45.6400        26
    45.7000        22
    45.7600        20
    45.8200        28
    45.8800        20
    45.9400        30
    46.0000        22
    46.0600        22
    46.1200        24
    46.1800        22
    46.2400        32
    46.3000        24
    46.3600        24
    46.4200        24
    46.4800        32
    46.5400        22
    46.6000        26
    46.6600        32
    46.7200        22
    46.7800        32
    46.8400        28
    46.9000        26
    46.9600        26
    47.0200        28
    47.0800        22
    47.1400        30
    47.2000        42
    47.2600        48
    47.3200        46
    47.3800        52
    47.4400       150
    47.5000       270
    47.5600       474
    47.6200       594
    47.6800       492
    47.7400       390
    47.8000       218
    47.8600       154
    47.9200        82
    47.9800        48
    48.0400        44
    48.1000        42
    48.1600        28
    48.2200        36
    48.2800        30
    48.3400        22
    48.4000        34
    48.4600        24
    48.5200        30
    48.5800        32
    48.6400        24
    48.7000        30
    48.7600        32
    48.8200        26
    48.8800        24
    48.9400        28
    49.0000        30
    49.0600        22
    49.1200        16
    49.1800        28
    49.2400        30
    49.3000        28
    49.3600        22
    49.4200        24
    49.4800        28
    49.5400        16
    49.6000        24
    49.6600        28
    49.7200        26
    49.7800        20
    49.8400        22
    49.9000        28
    49.9600        14
    50.0200        22
    50.0800        22
    50.1400        20
    50.2000        36
    50.2600        20
    50.3200        16
    50.3800        32
    50.4400        26
    50.5000        28
    50.5600        24
    50.6200        28
    50.6800        38
    50.7400        24
    50.8000        18
    50.8600        26
    50.9200        34
    50.9800        26
    51.0400        32
    51.1000        24
    51.1600        24
    51.2200        18
    51.2800        36
    51.3400        38
    51.4000        36
    51.4600        18
    51.5200        14
    51.5800        20
    51.6400        28
    51.7000        28
    51.7600        36
    51.8200        36
    51.8800        36
    51.9400        80
    52.0000       126
    52.0600       280
    52.1200       340
    52.1800       296
    52.2400       222
    52.3000       152
    52.3600        88
    52.4200        42
    52.4800        30
    52.5400        26
    52.6000        38
    52.6600        18
    52.7200        26
    52.7800        14
    52.8400        28
    52.9000        14
    52.9600        30
    53.0200        26
    53.0800        18
    53.1400        26
    53.2000        20
    53.2600        26
    53.3200        20
    53.3800        20
    53.4400        22
    53.5000        26
    53.5600        24
    53.6200        30
    53.6800        28
    53.7400        16
    53.8000        26
    53.8600        28
    53.9200        22
    53.9800        22
    54.0400        24
    54.1000        28
    54.1600        24
    54.2200        20
    54.2800        18
    54.3400        24
    54.4000        20
    54.4600        18
    54.5200        10
    54.5800        30
    54.6400        34
    54.7000        42
    54.7600        38
    54.8200        32
    54.8800        28
    54.9400        36
    55.0000        34
    55.0600        22
    55.1200        24
    55.1800        30
    55.2400        30
    55.3000        32
    55.3600        26
    55.4200        30
    55.4800        74
    55.5400       112
    55.6000        72
    55.6600        84
    55.7200        70
    55.7800        56
    55.8400        30
    55.9000        38
    55.9600        34
    56.0200        26
    56.0800        22
    56.1400        18
    56.2000        16
    56.2600        20
    56.3200        24
    56.3800        22
    56.4400        22
    56.5000        22
    56.5600        16
    56.6200        24
    56.6800        28
    56.7400        22
    56.8000        20
    56.8600        24
    56.9200        16
    56.9800        18
    57.0400        24
    57.1000        20
    57.1600        20
    57.2200        16
    57.2800        20
    57.3400        22
    57.4000        24
    57.4600        22
    57.5200        26
    57.5800        22
    57.6400        24
    57.7000        24
    57.7600        32
    57.8200        16
    57.8800        24
    57.9400        26
    58.0000        24
    58.0600        22
    58.1200        20
    58.1800        24
    58.2400        22
    58.3000        30
    58.3600        26
    58.4200        26
    58.4800        28
    58.5400        32
    58.6000        28
    58.6600        28
    58.7200        60
    58.7800        68
    58.8400        94
    58.9000       104
    58.9600        64
    59.0200        82
    59.0800        66
    59.1400        42
    59.2000        42
    59.2600        40
    59.3200        34
    59.3800        36
    59.4400        26
    59.5000        32
    59.5600        20
    59.6200        26
    59.6800        22
    59.7400        24
    59.8000        24
    59.8600        26
    59.9200        24
    59.9800        28
    60.0400        24
    60.1000        18
    60.1600        28
    60.2200        22
    60.2800        36
    60.3400        20
    60.4000        24
    60.4600        24
    60.5200        18
    60.5800        32
    60.6400        20
    60.7000        24
    60.7600        22
    60.8200        32
    60.8800        28
    60.9400        30
    61.0000        22
    61.0600        38
    61.1200        42
    61.1800        62
    61.2400        66
    61.3000        66
    61.3600        58
    61.4200        54
    61.4800        48
    61.5400        46
    61.6000        34
    61.6600        30
    61.7200        38
    61.7800        46
    61.8400        58
    61.9000        64
    61.9600       142
    62.0200       250
    62.0800       274
    62.1400       246
    62.2000       236
    62.2600       196
    62.3200       136
    62.3800       104
    62.4400        64
    62.5000        56
    62.5600        58
    62.6200        48
    62.6800        34
    62.7400        36
    62.8000        36
    62.8600        40
    62.9200        24
    62.9800        16
    63.0400        26
    63.1000        32
    63.1600        26
    63.2200        26
    63.2800        40
    63.3400        24
    63.4000        34
    63.4600        22
    63.5200        18
    63.5800        22
    63.6400        26
    63.7000        24
    63.7600        20
    63.8200        22
    63.8800        22
    63.9400        30
    64.0000        22
    64.0600        32
    64.1200        26
    64.1800        30
    64.2400        26
    64.3000        22
    64.3600        22
    64.4200        26
    64.4800        18
    64.5400        22
    64.6000        18
    64.6600        24
    64.7200        18
    64.7800        20
    64.8400        20
    64.9000        22
    64.9600        14
    65.0000        34