File: sl1/usgs/library06/DESCRIPT/new_xrd_results_to_be_added/Rhonda_Driscoll_xrd_runs/GDS2---Clinoptilolite.txt
/////////////////////////////////////////////////////////////////////////////////
/// Profile Data Ascii Dump (XRD)                                             ///
/////////////////////////////////////////////////////////////////////////////////

  Group     : Swayze
  Data      : GDS2
  File Name : GDS2.RAW

# Profile Datafile
          comment             = Clinoptilolite
          date & time         = 08-03-24 06:47:01

# Measurement Condition
    X-ray tube
          target              = Cu
          voltage             = 40.0 (kV)
          current             = 30.0 (mA)
    Slits
          divergence slit     = 2.00000 (deg)
          scatter slit        = 2.00000 (deg)
          receiving slit      = 0.15000 (mm)
    Scanning
          drive axis          = Theta-2Theta
          scan range          =    4.000 -   65.000
          scan mode           = Continuous Scan
          scan speed          =   2.0000 (deg/min)
          sampling pitch      =   0.0200 (deg)
          preset time         =   0.60 (sec)

# Data      [ Total No. = 3051 ]
  <2Theta>   <   I   >
     4.0000       182
     4.0600       172
     4.1200       204
     4.1800       186
     4.2400       168
     4.3000       180
     4.3600       190
     4.4200       174
     4.4800       202
     4.5400       176
     4.6000       186
     4.6600       182
     4.7200       172
     4.7800       184
     4.8400       166
     4.9000       178
     4.9600       156
     5.0200       164
     5.0800       158
     5.1400       148
     5.2000       178
     5.2600       182
     5.3200       168
     5.3800       178
     5.4400       168
     5.5000       180
     5.5600       142
     5.6200       188
     5.6800       158
     5.7400       180
     5.8000       156
     5.8600       174
     5.9200       174
     5.9800       184
     6.0400       160
     6.1000       158
     6.1600       156
     6.2200       170
     6.2800       148
     6.3400       144
     6.4000       150
     6.4600       144
     6.5200       142
     6.5800       120
     6.6400       150
     6.7000       144
     6.7600       140
     6.8200       132
     6.8800       154
     6.9400       134
     7.0000       126
     7.0600       118
     7.1200       124
     7.1800       114
     7.2400       142
     7.3000       144
     7.3600       144
     7.4200       112
     7.4800       120
     7.5400       118
     7.6000       112
     7.6600       122
     7.7200       100
     7.7800       142
     7.8400       130
     7.9000       128
     7.9600        96
     8.0200       114
     8.0800       138
     8.1400       124
     8.2000       124
     8.2600       134
     8.3200       122
     8.3800       128
     8.4400       122
     8.5000       114
     8.5600       124
     8.6200       124
     8.6800       130
     8.7400       148
     8.8000       124
     8.8600       112
     8.9200       122
     8.9800       156
     9.0400       122
     9.1000       148
     9.1600       128
     9.2200       140
     9.2800       162
     9.3400       156
     9.4000       186
     9.4600       216
     9.5200       222
     9.5800       266
     9.6400       336
     9.7000       432
     9.7600       644
     9.8200       724
     9.8800       472
     9.9400       234
    10.0000       138
    10.0600       162
    10.1200       126
    10.1800       114
    10.2400       108
    10.3000       106
    10.3600       100
    10.4200       102
    10.4800       122
    10.5400       116
    10.6000       130
    10.6600       122
    10.7200       132
    10.7800       150
    10.8400       178
    10.9000       214
    10.9600       224
    11.0200       338
    11.0800       528
    11.1400       328
    11.2000       188
    11.2600       128
    11.3200       122
    11.3800       114
    11.4400        98
    11.5000        82
    11.5600        86
    11.6200        88
    11.6800        98
    11.7400        88
    11.8000        78
    11.8600        94
    11.9200        86
    11.9800       100
    12.0400        66
    12.1000        86
    12.1600        84
    12.2200        88
    12.2800        80
    12.3400        78
    12.4000        88
    12.4600        84
    12.5200        86
    12.5800        88
    12.6400       100
    12.7000       122
    12.7600       116
    12.8200       142
    12.8800       160
    12.9400       166
    13.0000       176
    13.0600       122
    13.1200        98
    13.1800       102
    13.2400       104
    13.3000       104
    13.3600        76
    13.4200        84
    13.4800        86
    13.5400        96
    13.6000        76
    13.6600       106
    13.7200        92
    13.7800        90
    13.8400        80
    13.9000        80
    13.9600        88
    14.0200        74
    14.0800        74
    14.1400        76
    14.2000        68
    14.2600        76
    14.3200        82
    14.3800        68
    14.4400        64
    14.5000        78
    14.5600        70
    14.6200        78
    14.6800        88
    14.7400        98
    14.8000       132
    14.8600       162
    14.9200       142
    14.9800        68
    15.0400        76
    15.1000        72
    15.1600        66
    15.2200        68
    15.2800        74
    15.3400        66
    15.4000        72
    15.4600        88
    15.5200        50
    15.5800        82
    15.6400        62
    15.7000        84
    15.7600        84
    15.8200        96
    15.8800        76
    15.9400        68
    16.0000        66
    16.0600        76
    16.1200        72
    16.1800        72
    16.2400        70
    16.3000        72
    16.3600        64
    16.4200        74
    16.4800        80
    16.5400        98
    16.6000       102
    16.6600        84
    16.7200       114
    16.7800       146
    16.8400       166
    16.9000       150
    16.9600       142
    17.0200       124
    17.0800       152
    17.1400       240
    17.2000       358
    17.2600       356
    17.3200       216
    17.3800       142
    17.4400       108
    17.5000       102
    17.5600        72
    17.6200        58
    17.6800        70
    17.7400        64
    17.8000        62
    17.8600        68
    17.9200        68
    17.9800        66
    18.0400        88
    18.1000        68
    18.1600        78
    18.2200        74
    18.2800        62
    18.3400        56
    18.4000        70
    18.4600        92
    18.5200        72
    18.5800        68
    18.6400        84
    18.7000        76
    18.7600        88
    18.8200       112
    18.8800       142
    18.9400       198
    19.0000       212
    19.0600       214
    19.1200       166
    19.1800        86
    19.2400        86
    19.3000        80
    19.3600        76
    19.4200        78
    19.4800        76
    19.5400        86
    19.6000        94
    19.6600       104
    19.7200        82
    19.7800        62
    19.8400       108
    19.9000        86
    19.9600        80
    20.0200        82
    20.0800        94
    20.1400       100
    20.2000       114
    20.2600       164
    20.3200       166
    20.3800       156
    20.4400       100
    20.5000        98
    20.5600       104
    20.6200        86
    20.6800        76
    20.7400        84
    20.8000        84
    20.8600       100
    20.9200        98
    20.9800        98
    21.0400       108
    21.1000        96
    21.1600       106
    21.2200        98
    21.2800       116
    21.3400       148
    21.4000       114
    21.4600       156
    21.5200       152
    21.5800       172
    21.6400       164
    21.7000       172
    21.7600       194
    21.8200       172
    21.8800       206
    21.9400       194
    22.0000       236
    22.0600       270
    22.1200       408
    22.1800       598
    22.2400       854
    22.3000      1080
    22.3600      1042
    22.4200       898
    22.4800       658
    22.5400       484
    22.6000       464
    22.6600       476
    22.7200       478
    22.7800       406
    22.8400       302
    22.9000       228
    22.9600       146
    23.0200       146
    23.0800       154
    23.1400       150
    23.2000       100
    23.2600       116
    23.3200        96
    23.3800        90
    23.4400        88
    23.5000        80
    23.5600        88
    23.6200       116
    23.6800       114
    23.7400       142
    23.8000       142
    23.8600       158
    23.9200       166
    23.9800       122
    24.0400       104
    24.1000        76
    24.1600        74
    24.2200        70
    24.2800        70
    24.3400        64
    24.4000        84
    24.4600        72
    24.5200        84
    24.5800        70
    24.6400        94
    24.7000        64
    24.7600        96
    24.8200       132
    24.8800       184
    24.9400       284
    25.0000       232
    25.0600       158
    25.1200       126
    25.1800       120
    25.2400        84
    25.3000       108
    25.3600        76
    25.4200       140
    25.4800       144
    25.5400       142
    25.6000       158
    25.6600       182
    25.7200       178
    25.7800       200
    25.8400       278
    25.9000       408
    25.9600       428
    26.0200       398
    26.0800       300
    26.1400       260
    26.2000       310
    26.2600       274
    26.3200       148
    26.3800       108
    26.4400        90
    26.5000        90
    26.5600       134
    26.6200       132
    26.6800       178
    26.7400       200
    26.8000       178
    26.8600       130
    26.9200        96
    26.9800        88
    27.0400        74
    27.1000        80
    27.1600        72
    27.2200        64
    27.2800        84
    27.3400       104
    27.4000       110
    27.4600        88
    27.5200       108
    27.5800       212
    27.6400       198
    27.7000       158
    27.7600       142
    27.8200       160
    27.8800       176
    27.9400       226
    28.0000       346
    28.0600       436
    28.1200       376
    28.1800       278
    28.2400       166
    28.3000       154
    28.3600       132
    28.4200       168
    28.4800       232
    28.5400       298
    28.6000       258
    28.6600       182
    28.7200       150
    28.7800       146
    28.8400       166
    28.9000       224
    28.9600       258
    29.0200       240
    29.0800       160
    29.1400       128
    29.2000        90
    29.2600       130
    29.3200       114
    29.3800       142
    29.4400       144
    29.5000       142
    29.5600       152
    29.6200       174
    29.6800       228
    29.7400       294
    29.8000       296
    29.8600       390
    29.9200       474
    29.9800       542
    30.0400       526
    30.1000       484
    30.1600       430
    30.2200       324
    30.2800       236
    30.3400       150
    30.4000       120
    30.4600        96
    30.5200        88
    30.5800        64
    30.6400        82
    30.7000        72
    30.7600        60
    30.8200        72
    30.8800        72
    30.9400        76
    31.0000        70
    31.0600        70
    31.1200        60
    31.1800        84
    31.2400        70
    31.3000        82
    31.3600        66
    31.4200        82
    31.4800        52
    31.5400        76
    31.6000        90
    31.6600       120
    31.7200       120
    31.7800       220
    31.8400       334
    31.9000       402
    31.9600       412
    32.0200       296
    32.0800       168
    32.1400       120
    32.2000        74
    32.2600       102
    32.3200       106
    32.3800        92
    32.4400        76
    32.5000       100
    32.5600       136
    32.6200       150
    32.6800       206
    32.7400       224
    32.8000       242
    32.8600       230
    32.9200       194
    32.9800       124
    33.0400       108
    33.1000       102
    33.1600        66
    33.2200        80
    33.2800        78
    33.3400       126
    33.4000       136
    33.4600       108
    33.5200        94
    33.5800        70
    33.6400        78
    33.7000        62
    33.7600        68
    33.8200        70
    33.8800        52
    33.9400        46
    34.0000        58
    34.0600        52
    34.1200        60
    34.1800        74
    34.2400        54
    34.3000        66
    34.3600        72
    34.4200        60
    34.4800        74
    34.5400        74
    34.6000        70
    34.6600        68
    34.7200        76
    34.7800        68
    34.8400        88
    34.9000       156
    34.9600       134
    35.0200       140
    35.0800       114
    35.1400       100
    35.2000        90
    35.2600       114
    35.3200       144
    35.3800       140
    35.4400       152
    35.5000       120
    35.5600       122
    35.6200       130
    35.6800       116
    35.7400       122
    35.8000        86
    35.8600        92
    35.9200        96
    35.9800        82
    36.0400        88
    36.1000       102
    36.1600        96
    36.2200        90
    36.2800        66
    36.3400        74
    36.4000       114
    36.4600       126
    36.5200       138
    36.5800       134
    36.6400       166
    36.7000       170
    36.7600       172
    36.8200       186
    36.8800       214
    36.9400       208
    37.0000       176
    37.0600       172
    37.1200       150
    37.1800       116
    37.2400        68
    37.3000       108
    37.3600        86
    37.4200        76
    37.4800        70
    37.5400        64
    37.6000        80
    37.6600        74
    37.7200        74
    37.7800        52
    37.8400        70
    37.9000        68
    37.9600        74
    38.0200        80
    38.0800        84
    38.1400        78
    38.2000        90
    38.2600        70
    38.3200        68
    38.3800        60
    38.4400        78
    38.5000        48
    38.5600        44
    38.6200        62
    38.6800        84
    38.7400        64
    38.8000        66
    38.8600        70
    38.9200        52
    38.9800        58
    39.0400        68
    39.1000        50
    39.1600        44
    39.2200        66
    39.2800        60
    39.3400        58
    39.4000        60
    39.4600        78
    39.5200        68
    39.5800        70
    39.6400        70
    39.7000        54
    39.7600        64
    39.8200        56
    39.8800        62
    39.9400        48
    40.0000        62
    40.0600        58
    40.1200        52
    40.1800        58
    40.2400        60
    40.3000        58
    40.3600        66
    40.4200        64
    40.4800        42
    40.5400        64
    40.6000        84
    40.6600        72
    40.7200        84
    40.7800        64
    40.8400        62
    40.9000        70
    40.9600        64
    41.0200        76
    41.0800        70
    41.1400        82
    41.2000        80
    41.2600        58
    41.3200        64
    41.3800        76
    41.4400        68
    41.5000        52
    41.5600        60
    41.6200        42
    41.6800        56
    41.7400        58
    41.8000        48
    41.8600        76
    41.9200        70
    41.9800       112
    42.0400        82
    42.1000        72
    42.1600        70
    42.2200        66
    42.2800        72
    42.3400        50
    42.4000        68
    42.4600        70
    42.5200        70
    42.5800        68
    42.6400        92
    42.7000        84
    42.7600        84
    42.8200        78
    42.8800        56
    42.9400        76
    43.0000        86
    43.0600        86
    43.1200        92
    43.1800       108
    43.2400       102
    43.3000        96
    43.3600       104
    43.4200        76
    43.4800        70
    43.5400        68
    43.6000        66
    43.6600        64
    43.7200        76
    43.7800        64
    43.8400        76
    43.9000        86
    43.9600        94
    44.0200        64
    44.0800        78
    44.1400        70
    44.2000        60
    44.2600        58
    44.3200        70
    44.3800        60
    44.4400        70
    44.5000        72
    44.5600        68
    44.6200        76
    44.6800        72
    44.7400        60
    44.8000       108
    44.8600       122
    44.9200       132
    44.9800       102
    45.0400        86
    45.1000        68
    45.1600        72
    45.2200        62
    45.2800        50
    45.3400        58
    45.4000        44
    45.4600        58
    45.5200        66
    45.5800        60
    45.6400        66
    45.7000        60
    45.7600        74
    45.8200        88
    45.8800        76
    45.9400        60
    46.0000        70
    46.0600        78
    46.1200        86
    46.1800       102
    46.2400       124
    46.3000       128
    46.3600       110
    46.4200       110
    46.4800        88
    46.5400        74
    46.6000        84
    46.6600        86
    46.7200       114
    46.7800        90
    46.8400        92
    46.9000        74
    46.9600        88
    47.0200        78
    47.0800        52
    47.1400        80
    47.2000        70
    47.2600        62
    47.3200        68
    47.3800        62
    47.4400        54
    47.5000        62
    47.5600        54
    47.6200        50
    47.6800        50
    47.7400        60
    47.8000        78
    47.8600        50
    47.9200        52
    47.9800        48
    48.0400        46
    48.1000        56
    48.1600        42
    48.2200        44
    48.2800        62
    48.3400        68
    48.4000        68
    48.4600        54
    48.5200        54
    48.5800        50
    48.6400        70
    48.7000        56
    48.7600        62
    48.8200        64
    48.8800        70
    48.9400        84
    49.0000        58
    49.0600        62
    49.1200        82
    49.1800        66
    49.2400        50
    49.3000        56
    49.3600        46
    49.4200        42
    49.4800        52
    49.5400        60
    49.6000        64
    49.6600        54
    49.7200        62
    49.7800        76
    49.8400        66
    49.9000        70
    49.9600        80
    50.0200        72
    50.0800        74
    50.1400        58
    50.2000        58
    50.2600        54
    50.3200        64
    50.3800        48
    50.4400        52
    50.5000        68
    50.5600        32
    50.6200        42
    50.6800        44
    50.7400        48
    50.8000        56
    50.8600        62
    50.9200        66
    50.9800        82
    51.0400        68
    51.1000        76
    51.1600        68
    51.2200        74
    51.2800        82
    51.3400        90
    51.4000        96
    51.4600        88
    51.5200        94
    51.5800        98
    51.6400       106
    51.7000       114
    51.7600       122
    51.8200       104
    51.8800       110
    51.9400        86
    52.0000        82
    52.0600       100
    52.1200        96
    52.1800        76
    52.2400        86
    52.3000        86
    52.3600        92
    52.4200        76
    52.4800        96
    52.5400        90
    52.6000        66
    52.6600        78
    52.7200        76
    52.7800        90
    52.8400        74
    52.9000        74
    52.9600        84
    53.0200        82
    53.0800        84
    53.1400        94
    53.2000        70
    53.2600        90
    53.3200        66
    53.3800        64
    53.4400        64
    53.5000        62
    53.5600        74
    53.6200        70
    53.6800        88
    53.7400        60
    53.8000        68
    53.8600        58
    53.9200        62
    53.9800        88
    54.0400        92
    54.1000       106
    54.1600       102
    54.2200       104
    54.2800       118
    54.3400        88
    54.4000        68
    54.4600        66
    54.5200        60
    54.5800        62
    54.6400        50
    54.7000        50
    54.7600        50
    54.8200        50
    54.8800        50
    54.9400        52
    55.0000        54
    55.0600        80
    55.1200        76
    55.1800        64
    55.2400        62
    55.3000        52
    55.3600        68
    55.4200        62
    55.4800        60
    55.5400        74
    55.6000        76
    55.6600        76
    55.7200        64
    55.7800        80
    55.8400        66
    55.9000        70
    55.9600        56
    56.0200        82
    56.0800        62
    56.1400        68
    56.2000        64
    56.2600        62
    56.3200        72
    56.3800        82
    56.4400        60
    56.5000        78
    56.5600        64
    56.6200        80
    56.6800        58
    56.7400        62
    56.8000        60
    56.8600        78
    56.9200        88
    56.9800        74
    57.0400        62
    57.1000        70
    57.1600        60
    57.2200        62
    57.2800        56
    57.3400        36
    57.4000        54
    57.4600        44
    57.5200        58
    57.5800        58
    57.6400        66
    57.7000        62
    57.7600        82
    57.8200        80
    57.8800       102
    57.9400        88
    58.0000        68
    58.0600        96
    58.1200        84
    58.1800        74
    58.2400        68
    58.3000        78
    58.3600        64
    58.4200        66
    58.4800        52
    58.5400        66
    58.6000        56
    58.6600        46
    58.7200        56
    58.7800        48
    58.8400        62
    58.9000        72
    58.9600        60
    59.0200        56
    59.0800        48
    59.1400        64
    59.2000        46
    59.2600        60
    59.3200        60
    59.3800        48
    59.4400        64
    59.5000        48
    59.5600        58
    59.6200        46
    59.6800        52
    59.7400        50
    59.8000        50
    59.8600        44
    59.9200        56
    59.9800        62
    60.0400        66
    60.1000        72
    60.1600        42
    60.2200        54
    60.2800        68
    60.3400        82
    60.4000        54
    60.4600        72
    60.5200        40
    60.5800        48
    60.6400        62
    60.7000        54
    60.7600        74
    60.8200        80
    60.8800        76
    60.9400        68
    61.0000        66
    61.0600        78
    61.1200        66
    61.1800        54
    61.2400        58
    61.3000        54
    61.3600        36
    61.4200        58
    61.4800        68
    61.5400        54
    61.6000        52
    61.6600        60
    61.7200        64
    61.7800        54
    61.8400        56
    61.9000        50
    61.9600        56
    62.0200        74
    62.0800        64
    62.1400        66
    62.2000        76
    62.2600        84
    62.3200        70
    62.3800        78
    62.4400        74
    62.5000        72
    62.5600        66
    62.6200        88
    62.6800        80
    62.7400        90
    62.8000        86
    62.8600        82
    62.9200        62
    62.9800        64
    63.0400        66
    63.1000        66
    63.1600        58
    63.2200        64
    63.2800        68
    63.3400        54
    63.4000        46
    63.4600        52
    63.5200        50
    63.5800        56
    63.6400        60
    63.7000        68
    63.7600        60
    63.8200        72
    63.8800        76
    63.9400        68
    64.0000        92
    64.0600        84
    64.1200        96
    64.1800        74
    64.2400        90
    64.3000        64
    64.3600        64
    64.4200        62
    64.4800        72
    64.5400        56
    64.6000        58
    64.6600        70
    64.7200        70
    64.7800        60
    64.8400        78
    64.9000        98
    64.9600        94
    65.0000        88