File: sl1/usgs/library06/DESCRIPT/new_xrd_results_to_be_added/Rhonda_Driscoll_xrd_runs/GDS3---Heulandite.txt
/////////////////////////////////////////////////////////////////////////////////
/// Profile Data Ascii Dump (XRD)                                             ///
/////////////////////////////////////////////////////////////////////////////////

  Group     : Swayze
  Data      : GDS3
  File Name : GDS3.RAW

# Profile Datafile
          comment             = Heulandite
          date & time         = 08-03-25 07:24:04

# Measurement Condition
    X-ray tube
          target              = Cu
          voltage             = 40.0 (kV)
          current             = 30.0 (mA)
    Slits
          divergence slit     = 2.00000 (deg)
          scatter slit        = 2.00000 (deg)
          receiving slit      = 0.15000 (mm)
    Scanning
          drive axis          = Theta-2Theta
          scan range          =    4.000 -   65.000
          scan mode           = Continuous Scan
          scan speed          =   2.0000 (deg/min)
          sampling pitch      =   0.0200 (deg)
          preset time         =   0.60 (sec)

# Data      [ Total No. = 3051 ]
  <2Theta>   <   I   >
     4.0000       186
     4.0600       184
     4.1200       160
     4.1800       172
     4.2400       186
     4.3000       194
     4.3600       166
     4.4200       180
     4.4800       180
     4.5400       198
     4.6000       142
     4.6600       166
     4.7200       168
     4.7800       156
     4.8400       166
     4.9000       144
     4.9600       164
     5.0200       194
     5.0800       148
     5.1400       152
     5.2000       162
     5.2600       164
     5.3200       156
     5.3800       154
     5.4400       144
     5.5000       150
     5.5600       162
     5.6200       156
     5.6800       158
     5.7400       160
     5.8000       154
     5.8600       144
     5.9200       144
     5.9800       164
     6.0400       124
     6.1000       158
     6.1600       158
     6.2200       148
     6.2800       146
     6.3400       166
     6.4000       114
     6.4600       128
     6.5200       138
     6.5800       122
     6.6400       118
     6.7000       140
     6.7600       120
     6.8200       118
     6.8800       124
     6.9400       118
     7.0000       112
     7.0600       130
     7.1200       102
     7.1800       128
     7.2400       110
     7.3000       106
     7.3600       154
     7.4200       134
     7.4800       122
     7.5400       128
     7.6000        92
     7.6600       118
     7.7200       114
     7.7800       102
     7.8400       104
     7.9000       106
     7.9600       124
     8.0200       100
     8.0800       114
     8.1400       120
     8.2000        98
     8.2600       100
     8.3200       134
     8.3800       126
     8.4400       112
     8.5000       122
     8.5600       138
     8.6200       118
     8.6800       126
     8.7400       112
     8.8000       148
     8.8600       142
     8.9200       132
     8.9800       156
     9.0400       140
     9.1000       132
     9.1600       126
     9.2200       170
     9.2800       176
     9.3400       248
     9.4000       342
     9.4600       488
     9.5200       476
     9.5800       718
     9.6400      1324
     9.7000      4048
     9.7600      7864
     9.8200      7212
     9.8800      2534
     9.9400       482
    10.0000       280
    10.0600       194
    10.1200       154
    10.1800       110
    10.2400        94
    10.3000       106
    10.3600        98
    10.4200       102
    10.4800       108
    10.5400       100
    10.6000       110
    10.6600        94
    10.7200        84
    10.7800       110
    10.8400       104
    10.9000       116
    10.9600       130
    11.0200       134
    11.0800       130
    11.1400       112
    11.2000        94
    11.2600        92
    11.3200        94
    11.3800        88
    11.4400        78
    11.5000        96
    11.5600        90
    11.6200        86
    11.6800        80
    11.7400        90
    11.8000        84
    11.8600        84
    11.9200        74
    11.9800        84
    12.0400        76
    12.1000        90
    12.1600        92
    12.2200        92
    12.2800        94
    12.3400        78
    12.4000        78
    12.4600        76
    12.5200        78
    12.5800        70
    12.6400        98
    12.7000        88
    12.7600        82
    12.8200       104
    12.8800       110
    12.9400       108
    13.0000        86
    13.0600        74
    13.1200       100
    13.1800        92
    13.2400       102
    13.3000        64
    13.3600        84
    13.4200        78
    13.4800        68
    13.5400        82
    13.6000        80
    13.6600        90
    13.7200        80
    13.7800        78
    13.8400        66
    13.9000        78
    13.9600        80
    14.0200        60
    14.0800        78
    14.1400        64
    14.2000        82
    14.2600        62
    14.3200        70
    14.3800        68
    14.4400        74
    14.5000        66
    14.5600        66
    14.6200        58
    14.6800        90
    14.7400        80
    14.8000        86
    14.8600        84
    14.9200        70
    14.9800        72
    15.0400        66
    15.1000        60
    15.1600        54
    15.2200        60
    15.2800        86
    15.3400        60
    15.4000        70
    15.4600        56
    15.5200        74
    15.5800        74
    15.6400        88
    15.7000       130
    15.7600       120
    15.8200       104
    15.8800        88
    15.9400        62
    16.0000        60
    16.0600        50
    16.1200        76
    16.1800        64
    16.2400        76
    16.3000        80
    16.3600        68
    16.4200        80
    16.4800        90
    16.5400       112
    16.6000       102
    16.6600        90
    16.7200       108
    16.7800       146
    16.8400       110
    16.9000        64
    16.9600        70
    17.0200        70
    17.0800       112
    17.1400       112
    17.2000       142
    17.2600       136
    17.3200       110
    17.3800       116
    17.4400        88
    17.5000        60
    17.5600        56
    17.6200        60
    17.6800        60
    17.7400        62
    17.8000        70
    17.8600        64
    17.9200        66
    17.9800        60
    18.0400        50
    18.1000        58
    18.1600        56
    18.2200        60
    18.2800        66
    18.3400        64
    18.4000        66
    18.4600        54
    18.5200        58
    18.5800        80
    18.6400        76
    18.7000        86
    18.7600        98
    18.8200       164
    18.8800       272
    18.9400       276
    19.0000       284
    19.0600       180
    19.1200       100
    19.1800        70
    19.2400        56
    19.3000        54
    19.3600        56
    19.4200        64
    19.4800        74
    19.5400        88
    19.6000       112
    19.6600       156
    19.7200       224
    19.7800       190
    19.8400       136
    19.9000        78
    19.9600        64
    20.0200        66
    20.0800        70
    20.1400        84
    20.2000        82
    20.2600        86
    20.3200        72
    20.3800        44
    20.4400        58
    20.5000        62
    20.5600        58
    20.6200        54
    20.6800        64
    20.7400        62
    20.8000        48
    20.8600        58
    20.9200        42
    20.9800        56
    21.0400        58
    21.1000        48
    21.1600        54
    21.2200        60
    21.2800        50
    21.3400        52
    21.4000        56
    21.4600        62
    21.5200        54
    21.5800        58
    21.6400        62
    21.7000        62
    21.7600        64
    21.8200        70
    21.8800        64
    21.9400        94
    22.0000       132
    22.0600       144
    22.1200       244
    22.1800       494
    22.2400       546
    22.3000       396
    22.3600       328
    22.4200       248
    22.4800       228
    22.5400       372
    22.6000       526
    22.6600       536
    22.7200       436
    22.7800       312
    22.8400       158
    22.9000       104
    22.9600        92
    23.0200        86
    23.0800        94
    23.1400        72
    23.2000        58
    23.2600        48
    23.3200        60
    23.3800        62
    23.4400        54
    23.5000        72
    23.5600       114
    23.6200       124
    23.6800       158
    23.7400       116
    23.8000       102
    23.8600       112
    23.9200       100
    23.9800        52
    24.0400        50
    24.1000        56
    24.1600        64
    24.2200        50
    24.2800        60
    24.3400        46
    24.4000        54
    24.4600        72
    24.5200        56
    24.5800        48
    24.6400        58
    24.7000        94
    24.7600        92
    24.8200        90
    24.8800       118
    24.9400        76
    25.0000        66
    25.0600        70
    25.1200        70
    25.1800        68
    25.2400        92
    25.3000       104
    25.3600       108
    25.4200       176
    25.4800       190
    25.5400       152
    25.6000        96
    25.6600       100
    25.7200       122
    25.7800       142
    25.8400       192
    25.9000       174
    25.9600       128
    26.0200       134
    26.0800       182
    26.1400       144
    26.2000       104
    26.2600        60
    26.3200        56
    26.3800        44
    26.4400        48
    26.5000        62
    26.5600        50
    26.6200        74
    26.6800        84
    26.7400        96
    26.8000        66
    26.8600        62
    26.9200        56
    26.9800        56
    27.0400        50
    27.1000        50
    27.1600        44
    27.2200        42
    27.2800        56
    27.3400        44
    27.4000        60
    27.4600        48
    27.5200        60
    27.5800        68
    27.6400        62
    27.7000        64
    27.7600        74
    27.8200       126
    27.8800       182
    27.9400       162
    28.0000       138
    28.0600        86
    28.1200        70
    28.1800        76
    28.2400       100
    28.3000       154
    28.3600       176
    28.4200       248
    28.4800       238
    28.5400       188
    28.6000        88
    28.6600        82
    28.7200        70
    28.7800        98
    28.8400        94
    28.9000       104
    28.9600       102
    29.0200        76
    29.0800        78
    29.1400        80
    29.2000        78
    29.2600        86
    29.3200        84
    29.3800        96
    29.4400       128
    29.5000       166
    29.5600       200
    29.6200       340
    29.6800       452
    29.7400       584
    29.8000       932
    29.8600      1218
    29.9200      1224
    29.9800      1154
    30.0400      1004
    30.1000       720
    30.1600       380
    30.2200       168
    30.2800       110
    30.3400        82
    30.4000        60
    30.4600        60
    30.5200        50
    30.5800        58
    30.6400        52
    30.7000        46
    30.7600        58
    30.8200        42
    30.8800        56
    30.9400        64
    31.0000        60
    31.0600        56
    31.1200        42
    31.1800        52
    31.2400        48
    31.3000        50
    31.3600        58
    31.4200        64
    31.4800        64
    31.5400        68
    31.6000        90
    31.6600       108
    31.7200       152
    31.7800       190
    31.8400       212
    31.9000       156
    31.9600       106
    32.0200        78
    32.0800        52
    32.1400        60
    32.2000        58
    32.2600        62
    32.3200        66
    32.3800        76
    32.4400       100
    32.5000       170
    32.5600       204
    32.6200       274
    32.6800       384
    32.7400       390
    32.8000       402
    32.8600       338
    32.9200       234
    32.9800       126
    33.0400        86
    33.1000        52
    33.1600        58
    33.2200        52
    33.2800        52
    33.3400        72
    33.4000        78
    33.4600        66
    33.5200        72
    33.5800        44
    33.6400        44
    33.7000        40
    33.7600        44
    33.8200        44
    33.8800        62
    33.9400        52
    34.0000        56
    34.0600        54
    34.1200        46
    34.1800        48
    34.2400        52
    34.3000        44
    34.3600        38
    34.4200        48
    34.4800        50
    34.5400        64
    34.6000        54
    34.6600        48
    34.7200        64
    34.7800        42
    34.8400        46
    34.9000        58
    34.9600        58
    35.0200        64
    35.0800        74
    35.1400        80
    35.2000        90
    35.2600       122
    35.3200       158
    35.3800       236
    35.4400       262
    35.5000       218
    35.5600       254
    35.6200       200
    35.6800       130
    35.7400        82
    35.8000        72
    35.8600        66
    35.9200        74
    35.9800        80
    36.0400        70
    36.1000        86
    36.1600        82
    36.2200        82
    36.2800       100
    36.3400        94
    36.4000       104
    36.4600       100
    36.5200       116
    36.5800       102
    36.6400       114
    36.7000       112
    36.7600       118
    36.8200       120
    36.8800       112
    36.9400       124
    37.0000        98
    37.0600        92
    37.1200        66
    37.1800        44
    37.2400        42
    37.3000        50
    37.3600        42
    37.4200        48
    37.4800        56
    37.5400        76
    37.6000        70
    37.6600        74
    37.7200        70
    37.7800        42
    37.8400        58
    37.9000        62
    37.9600        78
    38.0200        82
    38.0800        78
    38.1400        48
    38.2000        68
    38.2600        64
    38.3200        52
    38.3800        50
    38.4400        42
    38.5000        56
    38.5600        60
    38.6200        64
    38.6800        74
    38.7400        96
    38.8000        72
    38.8600       100
    38.9200       112
    38.9800        92
    39.0400        90
    39.1000        80
    39.1600        90
    39.2200        82
    39.2800        64
    39.3400        56
    39.4000        64
    39.4600        66
    39.5200        56
    39.5800        60
    39.6400        74
    39.7000        54
    39.7600        54
    39.8200        48
    39.8800        60
    39.9400        68
    40.0000        84
    40.0600        96
    40.1200       192
    40.1800       252
    40.2400       224
    40.3000       228
    40.3600       270
    40.4200       202
    40.4800       116
    40.5400        82
    40.6000        56
    40.6600        60
    40.7200        42
    40.7800        50
    40.8400        62
    40.9000        42
    40.9600        56
    41.0200        50
    41.0800        56
    41.1400        56
    41.2000        48
    41.2600        58
    41.3200        50
    41.3800        46
    41.4400        56
    41.5000        44
    41.5600        54
    41.6200        60
    41.6800        46
    41.7400        72
    41.8000        90
    41.8600       100
    41.9200        88
    41.9800        60
    42.0400        82
    42.1000        82
    42.1600        66
    42.2200        76
    42.2800        76
    42.3400        78
    42.4000        98
    42.4600       108
    42.5200       118
    42.5800       116
    42.6400        88
    42.7000        90
    42.7600        56
    42.8200        48
    42.8800        50
    42.9400        44
    43.0000        52
    43.0600        76
    43.1200        90
    43.1800        64
    43.2400        66
    43.3000        52
    43.3600        66
    43.4200        70
    43.4800        64
    43.5400        68
    43.6000        76
    43.6600        84
    43.7200        64
    43.7800        46
    43.8400        48
    43.9000        70
    43.9600        52
    44.0200        50
    44.0800        42
    44.1400        50
    44.2000        46
    44.2600        38
    44.3200        38
    44.3800        50
    44.4400        56
    44.5000        74
    44.5600        68
    44.6200        54
    44.6800        74
    44.7400        80
    44.8000        78
    44.8600        52
    44.9200        60
    44.9800        38
    45.0400        60
    45.1000        54
    45.1600        36
    45.2200        46
    45.2800        64
    45.3400        50
    45.4000        62
    45.4600        72
    45.5200        72
    45.5800        52
    45.6400        80
    45.7000       110
    45.7600       136
    45.8200       160
    45.8800       184
    45.9400       184
    46.0000       164
    46.0600       172
    46.1200       148
    46.1800       146
    46.2400        94
    46.3000        80
    46.3600        82
    46.4200        60
    46.4800        62
    46.5400        68
    46.6000        56
    46.6600        62
    46.7200        66
    46.7800        62
    46.8400        46
    46.9000        58
    46.9600        60
    47.0200        72
    47.0800        92
    47.1400        96
    47.2000       104
    47.2600        94
    47.3200       104
    47.3800        92
    47.4400        78
    47.5000        62
    47.5600        58
    47.6200        32
    47.6800        54
    47.7400        34
    47.8000        32
    47.8600        46
    47.9200        40
    47.9800        36
    48.0400        36
    48.1000        48
    48.1600        52
    48.2200        46
    48.2800        34
    48.3400        42
    48.4000        34
    48.4600        48
    48.5200        58
    48.5800        52
    48.6400        68
    48.7000        80
    48.7600        78
    48.8200        66
    48.8800        96
    48.9400       102
    49.0000       104
    49.0600        78
    49.1200        64
    49.1800        50
    49.2400        34
    49.3000        54
    49.3600        42
    49.4200        50
    49.4800        68
    49.5400        46
    49.6000        54
    49.6600        60
    49.7200        62
    49.7800        76
    49.8400        76
    49.9000        58
    49.9600        74
    50.0200        58
    50.0800        42
    50.1400        72
    50.2000        60
    50.2600        58
    50.3200        54
    50.3800        56
    50.4400        60
    50.5000        54
    50.5600        60
    50.6200        70
    50.6800        94
    50.7400       184
    50.8000       336
    50.8600       442
    50.9200       364
    50.9800       446
    51.0400       462
    51.1000       590
    51.1600       352
    51.2200       346
    51.2800       196
    51.3400       126
    51.4000        94
    51.4600       120
    51.5200       110
    51.5800       112
    51.6400       114
    51.7000       116
    51.7600        82
    51.8200        74
    51.8800        86
    51.9400        82
    52.0000        80
    52.0600        72
    52.1200        56
    52.1800        60
    52.2400        70
    52.3000        86
    52.3600        86
    52.4200        86
    52.4800        64
    52.5400        78
    52.6000       104
    52.6600        88
    52.7200       138
    52.7800       142
    52.8400       164
    52.9000       198
    52.9600       190
    53.0200       198
    53.0800       170
    53.1400       144
    53.2000       102
    53.2600        96
    53.3200        78
    53.3800        60
    53.4400        60
    53.5000        50
    53.5600        46
    53.6200        40
    53.6800        54
    53.7400        58
    53.8000        76
    53.8600        78
    53.9200        64
    53.9800        74
    54.0400        78
    54.1000        58
    54.1600        52
    54.2200        60
    54.2800        50
    54.3400        50
    54.4000        48
    54.4600        58
    54.5200        50
    54.5800        30
    54.6400        40
    54.7000        58
    54.7600        54
    54.8200        40
    54.8800        58
    54.9400        60
    55.0000        40
    55.0600        62
    55.1200        46
    55.1800        60
    55.2400        44
    55.3000        64
    55.3600        52
    55.4200        72
    55.4800        88
    55.5400        94
    55.6000        88
    55.6600        82
    55.7200        66
    55.7800        80
    55.8400        70
    55.9000        56
    55.9600        54
    56.0200        52
    56.0800        76
    56.1400        72
    56.2000        56
    56.2600        56
    56.3200        84
    56.3800        86
    56.4400        62
    56.5000        54
    56.5600        60
    56.6200        58
    56.6800        50
    56.7400        60
    56.8000        62
    56.8600        74
    56.9200        48
    56.9800        54
    57.0400        48
    57.1000        38
    57.1600        42
    57.2200        46
    57.2800        46
    57.3400        40
    57.4000        44
    57.4600        36
    57.5200        50
    57.5800        56
    57.6400        58
    57.7000        62
    57.7600        64
    57.8200        94
    57.8800        82
    57.9400        60
    58.0000        62
    58.0600        62
    58.1200        52
    58.1800        42
    58.2400        50
    58.3000        44
    58.3600        48
    58.4200        46
    58.4800        52
    58.5400        40
    58.6000        36
    58.6600        42
    58.7200        36
    58.7800        44
    58.8400        38
    58.9000        38
    58.9600        66
    59.0200        44
    59.0800        62
    59.1400        74
    59.2000        72
    59.2600        50
    59.3200        72
    59.3800        72
    59.4400        64
    59.5000        68
    59.5600        62
    59.6200        42
    59.6800        52
    59.7400        44
    59.8000        44
    59.8600        32
    59.9200        44
    59.9800        56
    60.0400        58
    60.1000        42
    60.1600        42
    60.2200        38
    60.2800        40
    60.3400        32
    60.4000        64
    60.4600        64
    60.5200        46
    60.5800        60
    60.6400        52
    60.7000        60
    60.7600        70
    60.8200        66
    60.8800        52
    60.9400        62
    61.0000        52
    61.0600        48
    61.1200        38
    61.1800        38
    61.2400        44
    61.3000        24
    61.3600        34
    61.4200        34
    61.4800        42
    61.5400        42
    61.6000        52
    61.6600        46
    61.7200        54
    61.7800        62
    61.8400        56
    61.9000        64
    61.9600       108
    62.0200       158
    62.0800       176
    62.1400       150
    62.2000       180
    62.2600       164
    62.3200       240
    62.3800       222
    62.4400       194
    62.5000       186
    62.5600       146
    62.6200       112
    62.6800        94
    62.7400        78
    62.8000        84
    62.8600        78
    62.9200        68
    62.9800        60
    63.0400        46
    63.1000        48
    63.1600        78
    63.2200        96
    63.2800        58
    63.3400        78
    63.4000        80
    63.4600        98
    63.5200        94
    63.5800        78
    63.6400        82
    63.7000        90
    63.7600        82
    63.8200        66
    63.8800        90
    63.9400        64
    64.0000        58
    64.0600        64
    64.1200        64
    64.1800        52
    64.2400        38
    64.3000        42
    64.3600        56
    64.4200        44
    64.4800        46
    64.5400        64
    64.6000        64
    64.6600        76
    64.7200        88
    64.7800        84
    64.8400        80
    64.9000        78
    64.9600        82
    65.0000        66