File: sl1/usgs/library06/DESCRIPT/new_xrd_results_to_be_added/Rhonda_Driscoll_xrd_runs/GDS39B---Scapolite-grp..txt
/////////////////////////////////////////////////////////////////////////////////
/// Profile Data Ascii Dump (XRD)                                             ///
/////////////////////////////////////////////////////////////////////////////////

  Group     : Swayze
  Data      : GDS39B
  File Name : GDS39B.RAW

# Profile Datafile
          comment             = Scapolite grp.
          date & time         = 08-03-25 07:55:02

# Measurement Condition
    X-ray tube
          target              = Cu
          voltage             = 40.0 (kV)
          current             = 30.0 (mA)
    Slits
          divergence slit     = 2.00000 (deg)
          scatter slit        = 2.00000 (deg)
          receiving slit      = 0.15000 (mm)
    Scanning
          drive axis          = Theta-2Theta
          scan range          =    4.000 -   65.000
          scan mode           = Continuous Scan
          scan speed          =   2.0000 (deg/min)
          sampling pitch      =   0.0200 (deg)
          preset time         =   0.60 (sec)

# Data      [ Total No. = 3051 ]
  <2Theta>   <   I   >
     4.0000       170
     4.0600       176
     4.1200       186
     4.1800       168
     4.2400       180
     4.3000       164
     4.3600       194
     4.4200       174
     4.4800       144
     4.5400       164
     4.6000       164
     4.6600       158
     4.7200       160
     4.7800       172
     4.8400       162
     4.9000       150
     4.9600       138
     5.0200       174
     5.0800       164
     5.1400       146
     5.2000       180
     5.2600       184
     5.3200       144
     5.3800       140
     5.4400       166
     5.5000       150
     5.5600       126
     5.6200       150
     5.6800       164
     5.7400       154
     5.8000       156
     5.8600       162
     5.9200       170
     5.9800       160
     6.0400       146
     6.1000       142
     6.1600       152
     6.2200       124
     6.2800       148
     6.3400       144
     6.4000       146
     6.4600       134
     6.5200       118
     6.5800       142
     6.6400       128
     6.7000       142
     6.7600       134
     6.8200       104
     6.8800       132
     6.9400       124
     7.0000       112
     7.0600       116
     7.1200       118
     7.1800       134
     7.2400       110
     7.3000       102
     7.3600        98
     7.4200        98
     7.4800       128
     7.5400       110
     7.6000       102
     7.6600       122
     7.7200       116
     7.7800       116
     7.8400       110
     7.9000       104
     7.9600       116
     8.0200       126
     8.0800       108
     8.1400        96
     8.2000       114
     8.2600       104
     8.3200       122
     8.3800       114
     8.4400       110
     8.5000       112
     8.5600       120
     8.6200       106
     8.6800        94
     8.7400       114
     8.8000       124
     8.8600       108
     8.9200       118
     8.9800       126
     9.0400       100
     9.1000       126
     9.1600       102
     9.2200       106
     9.2800       106
     9.3400       130
     9.4000       104
     9.4600       110
     9.5200       118
     9.5800       124
     9.6400       112
     9.7000       112
     9.7600       134
     9.8200       128
     9.8800       126
     9.9400       130
    10.0000       102
    10.0600       126
    10.1200       122
    10.1800       138
    10.2400       124
    10.3000       134
    10.3600        98
    10.4200       100
    10.4800        90
    10.5400       120
    10.6000       108
    10.6600       100
    10.7200        94
    10.7800        84
    10.8400       110
    10.9000        92
    10.9600        92
    11.0200        96
    11.0800       116
    11.1400        96
    11.2000        84
    11.2600       102
    11.3200        98
    11.3800        94
    11.4400        98
    11.5000        78
    11.5600        76
    11.6200        86
    11.6800        86
    11.7400       108
    11.8000        60
    11.8600       102
    11.9200        90
    11.9800        76
    12.0400        90
    12.1000        84
    12.1600        76
    12.2200        72
    12.2800        76
    12.3400        74
    12.4000        86
    12.4600        74
    12.5200        74
    12.5800        84
    12.6400        78
    12.7000        70
    12.7600        76
    12.8200        82
    12.8800        64
    12.9400        72
    13.0000        76
    13.0600        68
    13.1200        66
    13.1800        76
    13.2400        76
    13.3000        80
    13.3600        74
    13.4200        70
    13.4800       104
    13.5400        98
    13.6000       100
    13.6600       190
    13.7200       154
    13.7800        78
    13.8400        78
    13.9000        58
    13.9600        64
    14.0200        68
    14.0800        84
    14.1400        62
    14.2000        76
    14.2600        74
    14.3200        50
    14.3800        76
    14.4400       152
    14.5000       136
    14.5600       212
    14.6200       106
    14.6800        88
    14.7400        64
    14.8000        56
    14.8600        64
    14.9200        58
    14.9800        60
    15.0400        60
    15.1000        70
    15.1600        78
    15.2200        60
    15.2800        58
    15.3400        58
    15.4000        56
    15.4600        62
    15.5200        54
    15.5800        50
    15.6400        48
    15.7000        62
    15.7600        44
    15.8200        66
    15.8800        50
    15.9400        58
    16.0000        52
    16.0600        42
    16.1200        62
    16.1800        66
    16.2400        58
    16.3000        54
    16.3600        46
    16.4200        48
    16.4800        48
    16.5400        50
    16.6000        74
    16.6600        52
    16.7200        42
    16.7800        66
    16.8400        64
    16.9000        60
    16.9600        54
    17.0200        46
    17.0800        62
    17.1400        52
    17.2000        56
    17.2600        56
    17.3200        62
    17.3800        58
    17.4400        52
    17.5000        48
    17.5600        48
    17.6200        56
    17.6800        64
    17.7400        54
    17.8000        62
    17.8600        58
    17.9200        58
    17.9800        60
    18.0400        52
    18.1000        50
    18.1600        54
    18.2200        50
    18.2800        52
    18.3400        46
    18.4000        56
    18.4600        56
    18.5200        50
    18.5800        58
    18.6400        70
    18.7000        62
    18.7600        56
    18.8200        46
    18.8800        44
    18.9400        46
    19.0000        48
    19.0600        56
    19.1200        50
    19.1800        48
    19.2400        40
    19.3000        50
    19.3600        50
    19.4200        52
    19.4800        50
    19.5400        42
    19.6000        60
    19.6600        54
    19.7200        60
    19.7800        58
    19.8400        56
    19.9000        58
    19.9600        54
    20.0200        72
    20.0800       112
    20.1400        84
    20.2000        44
    20.2600        60
    20.3200        60
    20.3800        38
    20.4400        54
    20.5000        60
    20.5600        54
    20.6200        96
    20.6800       210
    20.7400       134
    20.8000        60
    20.8600        48
    20.9200        58
    20.9800        38
    21.0400        32
    21.1000        46
    21.1600        38
    21.2200        50
    21.2800        48
    21.3400        58
    21.4000        50
    21.4600        44
    21.5200        58
    21.5800        46
    21.6400        46
    21.7000        48
    21.7600        44
    21.8200        60
    21.8800        48
    21.9400        42
    22.0000        42
    22.0600        44
    22.1200        36
    22.1800        48
    22.2400        46
    22.3000        40
    22.3600        44
    22.4200        44
    22.4800        48
    22.5400        38
    22.6000        46
    22.6600        48
    22.7200        52
    22.7800        66
    22.8400        74
    22.9000        90
    22.9600       100
    23.0200       184
    23.0800       290
    23.1400       664
    23.2000       624
    23.2600       318
    23.3200       138
    23.3800        66
    23.4400        56
    23.5000        46
    23.5600        38
    23.6200        56
    23.6800        44
    23.7400        56
    23.8000        60
    23.8600        52
    23.9200        60
    23.9800        44
    24.0400        50
    24.1000        48
    24.1600        50
    24.2200        48
    24.2800        54
    24.3400        62
    24.4000        46
    24.4600        70
    24.5200        74
    24.5800        58
    24.6400        70
    24.7000        76
    24.7600       134
    24.8200       346
    24.8800      1178
    24.9400       794
    25.0000       234
    25.0600       102
    25.1200        66
    25.1800        90
    25.2400        98
    25.3000       164
    25.3600       286
    25.4200       632
    25.4800      1160
    25.5400      1704
    25.6000      1718
    25.6600       894
    25.7200       264
    25.7800       114
    25.8400        70
    25.9000        66
    25.9600        50
    26.0200        54
    26.0800        50
    26.1400        50
    26.2000        56
    26.2600        36
    26.3200        36
    26.3800        36
    26.4400        40
    26.5000        28
    26.5600        32
    26.6200        24
    26.6800        40
    26.7400        32
    26.8000        26
    26.8600        34
    26.9200        34
    26.9800        34
    27.0400        46
    27.1000        34
    27.1600        30
    27.2200        42
    27.2800        28
    27.3400        30
    27.4000        26
    27.4600        44
    27.5200        38
    27.5800        40
    27.6400        54
    27.7000        42
    27.7600        30
    27.8200        44
    27.8800        34
    27.9400        42
    28.0000        26
    28.0600        36
    28.1200        34
    28.1800        40
    28.2400        34
    28.3000        34
    28.3600        38
    28.4200        36
    28.4800        42
    28.5400        46
    28.6000        48
    28.6600        82
    28.7200        92
    28.7800       124
    28.8400       166
    28.9000       328
    28.9600       574
    29.0200       804
    29.0800       876
    29.1400       516
    29.2000       114
    29.2600        96
    29.3200       220
    29.3800       296
    29.4400       788
    29.5000       530
    29.5600       310
    29.6200       110
    29.6800        52
    29.7400        46
    29.8000        50
    29.8600        32
    29.9200        34
    29.9800        38
    30.0400        40
    30.1000        30
    30.1600        36
    30.2200        28
    30.2800        32
    30.3400        42
    30.4000        36
    30.4600        20
    30.5200        22
    30.5800        32
    30.6400        20
    30.7000        30
    30.7600        38
    30.8200        30
    30.8800        40
    30.9400        36
    31.0000        42
    31.0600        44
    31.1200        40
    31.1800        72
    31.2400        62
    31.3000       236
    31.3600       292
    31.4200       204
    31.4800        82
    31.5400        56
    31.6000        38
    31.6600        44
    31.7200        32
    31.7800        34
    31.8400        36
    31.9000        34
    31.9600        34
    32.0200        32
    32.0800        26
    32.1400        32
    32.2000        38
    32.2600        34
    32.3200        28
    32.3800        48
    32.4400        70
    32.5000        78
    32.5600       162
    32.6200       188
    32.6800       232
    32.7400       134
    32.8000        64
    32.8600        74
    32.9200       100
    32.9800       116
    33.0400       254
    33.1000       530
    33.1600       576
    33.2200       330
    33.2800       160
    33.3400        80
    33.4000        46
    33.4600        48
    33.5200        44
    33.5800        30
    33.6400        20
    33.7000        26
    33.7600        28
    33.8200        32
    33.8800        34
    33.9400        22
    34.0000        26
    34.0600        38
    34.1200        32
    34.1800        34
    34.2400        30
    34.3000        30
    34.3600        22
    34.4200        34
    34.4800        32
    34.5400        36
    34.6000        32
    34.6600        26
    34.7200        44
    34.7800        20
    34.8400        24
    34.9000        26
    34.9600        30
    35.0200        36
    35.0800        36
    35.1400        24
    35.2000        30
    35.2600        30
    35.3200        30
    35.3800        24
    35.4400        22
    35.5000        30
    35.5600        32
    35.6200        34
    35.6800        30
    35.7400        32
    35.8000        34
    35.8600        34
    35.9200        22
    35.9800        36
    36.0400        36
    36.1000        22
    36.1600        38
    36.2200        22
    36.2800        26
    36.3400        30
    36.4000        22
    36.4600        38
    36.5200        28
    36.5800        40
    36.6400        34
    36.7000        28
    36.7600        24
    36.8200        24
    36.8800        38
    36.9400        54
    37.0000        28
    37.0600        34
    37.1200        34
    37.1800        20
    37.2400        32
    37.3000        24
    37.3600        20
    37.4200        28
    37.4800        30
    37.5400        32
    37.6000        28
    37.6600        32
    37.7200        62
    37.7800        66
    37.8400        84
    37.9000       106
    37.9600       100
    38.0200        44
    38.0800        42
    38.1400        42
    38.2000        30
    38.2600        44
    38.3200        32
    38.3800        30
    38.4400        32
    38.5000        22
    38.5600        32
    38.6200        32
    38.6800        22
    38.7400        44
    38.8000        42
    38.8600        60
    38.9200       106
    38.9800       218
    39.0400       200
    39.1000       146
    39.1600        96
    39.2200        64
    39.2800        50
    39.3400        66
    39.4000        56
    39.4600        84
    39.5200        54
    39.5800        38
    39.6400        36
    39.7000        38
    39.7600        26
    39.8200        28
    39.8800        20
    39.9400        30
    40.0000        34
    40.0600        40
    40.1200        26
    40.1800        26
    40.2400        26
    40.3000        40
    40.3600        26
    40.4200        16
    40.4800        28
    40.5400        34
    40.6000        28
    40.6600        38
    40.7200        48
    40.7800        44
    40.8400        68
    40.9000       144
    40.9600        60
    41.0200        66
    41.0800        38
    41.1400        28
    41.2000        46
    41.2600        22
    41.3200        24
    41.3800        38
    41.4400        34
    41.5000        36
    41.5600        36
    41.6200        46
    41.6800        42
    41.7400        46
    41.8000       120
    41.8600       256
    41.9200       172
    41.9800       208
    42.0400       204
    42.1000       238
    42.1600       132
    42.2200       120
    42.2800        54
    42.3400        44
    42.4000        36
    42.4600        42
    42.5200        36
    42.5800        32
    42.6400        44
    42.7000        36
    42.7600        38
    42.8200        30
    42.8800        36
    42.9400        40
    43.0000        30
    43.0600        30
    43.1200        34
    43.1800        40
    43.2400        38
    43.3000        30
    43.3600        30
    43.4200        30
    43.4800        40
    43.5400        50
    43.6000        98
    43.6600        78
    43.7200        64
    43.7800        36
    43.8400        24
    43.9000        26
    43.9600        42
    44.0200        36
    44.0800        32
    44.1400        28
    44.2000        30
    44.2600        30
    44.3200        30
    44.3800        36
    44.4400        32
    44.5000        38
    44.5600        44
    44.6200        40
    44.6800        66
    44.7400       144
    44.8000       126
    44.8600       144
    44.9200       152
    44.9800       158
    45.0400        98
    45.1000        72
    45.1600        42
    45.2200        36
    45.2800        32
    45.3400        40
    45.4000        32
    45.4600        36
    45.5200        32
    45.5800        34
    45.6400        26
    45.7000        34
    45.7600        32
    45.8200        34
    45.8800        38
    45.9400        26
    46.0000        46
    46.0600        32
    46.1200        38
    46.1800        22
    46.2400        34
    46.3000        26
    46.3600        24
    46.4200        38
    46.4800        34
    46.5400        30
    46.6000        26
    46.6600        52
    46.7200        44
    46.7800        40
    46.8400        38
    46.9000        44
    46.9600        50
    47.0200        88
    47.0800       124
    47.1400       240
    47.2000       328
    47.2600       312
    47.3200       510
    47.3800       668
    47.4400       546
    47.5000       882
    47.5600       428
    47.6200       444
    47.6800       202
    47.7400       198
    47.8000       250
    47.8600       208
    47.9200       180
    47.9800       148
    48.0400        54
    48.1000        46
    48.1600        28
    48.2200        40
    48.2800        26
    48.3400        38
    48.4000        28
    48.4600        38
    48.5200        46
    48.5800        32
    48.6400        28
    48.7000        26
    48.7600        16
    48.8200        28
    48.8800        30
    48.9400        34
    49.0000        24
    49.0600        36
    49.1200        32
    49.1800        28
    49.2400        36
    49.3000        32
    49.3600        38
    49.4200        32
    49.4800        30
    49.5400        30
    49.6000        42
    49.6600        94
    49.7200        72
    49.7800        48
    49.8400        54
    49.9000        34
    49.9600        78
    50.0200       118
    50.0800        90
    50.1400        76
    50.2000        68
    50.2600        42
    50.3200        30
    50.3800        28
    50.4400        32
    50.5000        26
    50.5600        32
    50.6200        28
    50.6800        46
    50.7400        24
    50.8000        34
    50.8600        32
    50.9200        30
    50.9800        36
    51.0400        36
    51.1000        34
    51.1600        30
    51.2200        34
    51.2800        40
    51.3400        22
    51.4000        32
    51.4600        32
    51.5200        24
    51.5800        28
    51.6400        16
    51.7000        32
    51.7600        26
    51.8200        30
    51.8800        30
    51.9400        38
    52.0000        66
    52.0600       110
    52.1200        70
    52.1800        88
    52.2400        98
    52.3000        42
    52.3600        56
    52.4200        50
    52.4800        28
    52.5400        36
    52.6000        44
    52.6600        46
    52.7200        34
    52.7800        42
    52.8400        38
    52.9000        28
    52.9600        20
    53.0200        22
    53.0800        26
    53.1400        24
    53.2000        28
    53.2600        42
    53.3200        32
    53.3800        90
    53.4400       200
    53.5000       114
    53.5600       170
    53.6200       108
    53.6800        94
    53.7400        58
    53.8000        32
    53.8600        32
    53.9200        28
    53.9800        40
    54.0400        34
    54.1000        22
    54.1600        26
    54.2200        22
    54.2800        28
    54.3400        34
    54.4000        42
    54.4600        50
    54.5200        64
    54.5800        58
    54.6400        70
    54.7000        60
    54.7600        46
    54.8200        38
    54.8800        26
    54.9400        24
    55.0000        28
    55.0600        20
    55.1200        24
    55.1800        30
    55.2400        26
    55.3000        32
    55.3600        32
    55.4200        22
    55.4800        30
    55.5400        20
    55.6000        24
    55.6600        30
    55.7200        32
    55.7800        36
    55.8400        24
    55.9000        34
    55.9600        20
    56.0200        32
    56.0800        28
    56.1400        24
    56.2000        30
    56.2600        24
    56.3200        34
    56.3800        36
    56.4400        28
    56.5000        56
    56.5600        52
    56.6200       176
    56.6800       166
    56.7400        84
    56.8000        86
    56.8600        84
    56.9200        32
    56.9800        22
    57.0400        30
    57.1000        42
    57.1600        74
    57.2200        98
    57.2800        94
    57.3400        68
    57.4000        70
    57.4600        42
    57.5200        32
    57.5800        30
    57.6400        30
    57.7000        38
    57.7600        24
    57.8200        24
    57.8800        24
    57.9400        32
    58.0000        32
    58.0600        22
    58.1200        24
    58.1800        32
    58.2400        30
    58.3000        32
    58.3600        26
    58.4200        34
    58.4800        38
    58.5400        34
    58.6000        26
    58.6600        40
    58.7200        28
    58.7800        28
    58.8400        36
    58.9000        94
    58.9600       206
    59.0200       148
    59.0800       102
    59.1400       174
    59.2000       106
    59.2600        78
    59.3200        46
    59.3800        94
    59.4400       102
    59.5000        46
    59.5600        46
    59.6200        58
    59.6800        34
    59.7400        32
    59.8000        26
    59.8600        32
    59.9200        18
    59.9800        40
    60.0400        22
    60.1000        34
    60.1600        26
    60.2200        24
    60.2800        34
    60.3400        34
    60.4000        24
    60.4600        36
    60.5200        40
    60.5800        38
    60.6400        22
    60.7000        28
    60.7600        32
    60.8200        38
    60.8800        42
    60.9400        44
    61.0000        64
    61.0600        56
    61.1200       138
    61.1800       104
    61.2400        60
    61.3000       102
    61.3600        56
    61.4200        36
    61.4800        26
    61.5400        22
    61.6000        20
    61.6600        34
    61.7200        30
    61.7800        24
    61.8400        16
    61.9000        20
    61.9600        24
    62.0200        36
    62.0800        44
    62.1400        36
    62.2000        32
    62.2600        42
    62.3200        34
    62.3800        42
    62.4400        32
    62.5000        60
    62.5600       160
    62.6200       154
    62.6800        56
    62.7400        86
    62.8000        84
    62.8600        34
    62.9200        28
    62.9800        36
    63.0400        44
    63.1000        54
    63.1600        72
    63.2200       106
    63.2800        78
    63.3400        72
    63.4000       182
    63.4600       236
    63.5200       190
    63.5800       170
    63.6400       136
    63.7000       112
    63.7600        54
    63.8200        38
    63.8800        32
    63.9400        28
    64.0000        28
    64.0600        32
    64.1200        36
    64.1800        32
    64.2400        20
    64.3000        30
    64.3600        24
    64.4200        26
    64.4800        40
    64.5400        14
    64.6000        24
    64.6600        34
    64.7200        24
    64.7800        22
    64.8400        32
    64.9000        34
    64.9600        30
    65.0000        40