File: sl1/usgs/library06/DESCRIPT/new_xrd_results_to_be_added/Rhonda_Driscoll_xrd_runs/GDS38B---Scapolite.txt
/////////////////////////////////////////////////////////////////////////////////
/// Profile Data Ascii Dump (XRD)                                             ///
/////////////////////////////////////////////////////////////////////////////////

  Group     : Swayze
  Data      : GDS38B
  File Name : GDS38B.RAW

# Profile Datafile
          comment             = Scapolite
          date & time         = 08-03-24 06:16:03

# Measurement Condition
    X-ray tube
          target              = Cu
          voltage             = 40.0 (kV)
          current             = 30.0 (mA)
    Slits
          divergence slit     = 2.00000 (deg)
          scatter slit        = 2.00000 (deg)
          receiving slit      = 0.15000 (mm)
    Scanning
          drive axis          = Theta-2Theta
          scan range          =    4.000 -   65.000
          scan mode           = Continuous Scan
          scan speed          =   2.0000 (deg/min)
          sampling pitch      =   0.0200 (deg)
          preset time         =   0.60 (sec)

# Data      [ Total No. = 3051 ]
  <2Theta>   <   I   >
     4.0000       200
     4.0600       180
     4.1200       174
     4.1800       186
     4.2400       168
     4.3000       194
     4.3600       174
     4.4200       184
     4.4800       180
     4.5400       168
     4.6000       162
     4.6600       166
     4.7200       174
     4.7800       144
     4.8400       174
     4.9000       158
     4.9600       158
     5.0200       174
     5.0800       166
     5.1400       176
     5.2000       158
     5.2600       182
     5.3200       136
     5.3800       170
     5.4400       172
     5.5000       142
     5.5600       162
     5.6200       170
     5.6800       146
     5.7400       158
     5.8000       168
     5.8600       176
     5.9200       160
     5.9800       144
     6.0400       150
     6.1000       142
     6.1600       166
     6.2200       146
     6.2800       134
     6.3400       144
     6.4000       146
     6.4600       148
     6.5200       150
     6.5800       150
     6.6400       120
     6.7000       136
     6.7600       154
     6.8200       130
     6.8800       120
     6.9400       148
     7.0000       128
     7.0600       114
     7.1200       132
     7.1800       128
     7.2400       118
     7.3000       122
     7.3600       112
     7.4200       130
     7.4800       124
     7.5400       146
     7.6000       116
     7.6600       132
     7.7200       116
     7.7800       118
     7.8400       106
     7.9000       118
     7.9600       122
     8.0200       108
     8.0800       134
     8.1400       124
     8.2000       110
     8.2600       114
     8.3200       100
     8.3800       136
     8.4400       128
     8.5000       108
     8.5600       128
     8.6200       124
     8.6800       120
     8.7400       126
     8.8000       114
     8.8600       120
     8.9200       130
     8.9800       110
     9.0400       116
     9.1000       118
     9.1600       104
     9.2200       120
     9.2800       122
     9.3400       128
     9.4000       132
     9.4600       112
     9.5200       132
     9.5800       140
     9.6400       112
     9.7000       124
     9.7600       120
     9.8200       138
     9.8800       130
     9.9400       118
    10.0000       130
    10.0600       120
    10.1200       122
    10.1800       136
    10.2400       140
    10.3000       144
    10.3600       126
    10.4200        88
    10.4800       112
    10.5400       116
    10.6000        96
    10.6600       112
    10.7200       106
    10.7800       106
    10.8400       124
    10.9000       102
    10.9600       108
    11.0200        80
    11.0800        92
    11.1400       106
    11.2000        96
    11.2600       100
    11.3200        74
    11.3800       100
    11.4400        76
    11.5000        98
    11.5600        80
    11.6200        86
    11.6800        84
    11.7400        82
    11.8000        92
    11.8600        94
    11.9200       102
    11.9800        86
    12.0400        92
    12.1000        84
    12.1600        78
    12.2200       100
    12.2800        90
    12.3400        86
    12.4000       106
    12.4600        74
    12.5200        90
    12.5800        86
    12.6400        72
    12.7000        86
    12.7600        94
    12.8200        96
    12.8800        96
    12.9400        70
    13.0000        88
    13.0600        72
    13.1200        72
    13.1800        88
    13.2400        74
    13.3000        70
    13.3600        86
    13.4200        92
    13.4800        94
    13.5400        94
    13.6000       136
    13.6600       180
    13.7200       184
    13.7800       120
    13.8400        74
    13.9000        64
    13.9600        80
    14.0200        88
    14.0800        60
    14.1400        90
    14.2000        76
    14.2600        86
    14.3200        88
    14.3800        82
    14.4400       102
    14.5000       136
    14.5600       208
    14.6200       274
    14.6800       146
    14.7400        78
    14.8000        68
    14.8600        68
    14.9200        68
    14.9800        70
    15.0400        62
    15.1000        88
    15.1600        66
    15.2200        58
    15.2800        70
    15.3400        48
    15.4000        58
    15.4600        72
    15.5200        66
    15.5800        58
    15.6400        74
    15.7000        68
    15.7600        50
    15.8200        64
    15.8800        68
    15.9400        78
    16.0000        68
    16.0600        74
    16.1200        82
    16.1800        62
    16.2400        64
    16.3000        56
    16.3600        62
    16.4200        62
    16.4800        60
    16.5400        70
    16.6000        60
    16.6600        72
    16.7200        54
    16.7800        64
    16.8400        58
    16.9000        50
    16.9600        50
    17.0200        66
    17.0800        44
    17.1400        42
    17.2000        54
    17.2600        58
    17.3200        58
    17.3800        66
    17.4400        64
    17.5000        54
    17.5600        58
    17.6200        60
    17.6800        52
    17.7400        58
    17.8000        62
    17.8600        72
    17.9200        64
    17.9800        60
    18.0400        64
    18.1000        60
    18.1600        62
    18.2200        42
    18.2800        40
    18.3400        54
    18.4000        60
    18.4600        62
    18.5200        40
    18.5800        62
    18.6400        48
    18.7000        62
    18.7600        56
    18.8200        50
    18.8800        64
    18.9400        64
    19.0000        60
    19.0600        46
    19.1200        64
    19.1800        64
    19.2400        40
    19.3000        50
    19.3600        48
    19.4200        54
    19.4800        44
    19.5400        54
    19.6000        50
    19.6600        62
    19.7200        62
    19.7800        64
    19.8400        60
    19.9000        56
    19.9600        80
    20.0200       102
    20.0800       114
    20.1400        88
    20.2000        56
    20.2600        64
    20.3200        56
    20.3800        72
    20.4400        50
    20.5000        64
    20.5600        80
    20.6200       106
    20.6800       116
    20.7400       152
    20.8000        88
    20.8600        60
    20.9200        70
    20.9800        44
    21.0400        58
    21.1000        54
    21.1600        50
    21.2200        48
    21.2800        68
    21.3400        60
    21.4000        52
    21.4600        46
    21.5200        54
    21.5800        36
    21.6400        50
    21.7000        48
    21.7600        44
    21.8200        42
    21.8800        50
    21.9400        44
    22.0000        50
    22.0600        48
    22.1200        52
    22.1800        38
    22.2400        52
    22.3000        58
    22.3600        40
    22.4200        48
    22.4800        62
    22.5400        46
    22.6000        52
    22.6600        62
    22.7200        42
    22.7800        86
    22.8400        60
    22.9000       108
    22.9600       142
    23.0200       176
    23.0800       290
    23.1400       626
    23.2000      2120
    23.2600      1456
    23.3200       354
    23.3800        82
    23.4400        80
    23.5000        54
    23.5600        64
    23.6200        58
    23.6800        54
    23.7400        42
    23.8000        56
    23.8600        74
    23.9200        56
    23.9800        40
    24.0400        58
    24.1000        42
    24.1600        34
    24.2200        54
    24.2800        48
    24.3400        50
    24.4000        58
    24.4600        56
    24.5200        58
    24.5800        60
    24.6400        70
    24.7000       120
    24.7600        92
    24.8200       198
    24.8800       304
    24.9400       434
    25.0000       374
    25.0600       174
    25.1200        80
    25.1800        82
    25.2400       116
    25.3000       118
    25.3600       240
    25.4200       418
    25.4800       858
    25.5400      1482
    25.6000      1814
    25.6600      1368
    25.7200       514
    25.7800       144
    25.8400        98
    25.9000        82
    25.9600        72
    26.0200        50
    26.0800        48
    26.1400        44
    26.2000        50
    26.2600        56
    26.3200        58
    26.3800        44
    26.4400        68
    26.5000        62
    26.5600        58
    26.6200        50
    26.6800        54
    26.7400        42
    26.8000        38
    26.8600        46
    26.9200        38
    26.9800        48
    27.0400        30
    27.1000        46
    27.1600        40
    27.2200        36
    27.2800        34
    27.3400        44
    27.4000        36
    27.4600        38
    27.5200        44
    27.5800        54
    27.6400        48
    27.7000        56
    27.7600        52
    27.8200        60
    27.8800        44
    27.9400        34
    28.0000        46
    28.0600        42
    28.1200        42
    28.1800        42
    28.2400        58
    28.3000        34
    28.3600        52
    28.4200        42
    28.4800        52
    28.5400        42
    28.6000        66
    28.6600        74
    28.7200        94
    28.7800        98
    28.8400       176
    28.9000       422
    28.9600      1096
    29.0200      1076
    29.0800       808
    29.1400       422
    29.2000       194
    29.2600       124
    29.3200       174
    29.3800       338
    29.4400       954
    29.5000      1842
    29.5600      1096
    29.6200       534
    29.6800        82
    29.7400        68
    29.8000        56
    29.8600        50
    29.9200        38
    29.9800        50
    30.0400        40
    30.1000        34
    30.1600        34
    30.2200        38
    30.2800        42
    30.3400        46
    30.4000        46
    30.4600        28
    30.5200        36
    30.5800        42
    30.6400        40
    30.7000        34
    30.7600        40
    30.8200        42
    30.8800        32
    30.9400        36
    31.0000        42
    31.0600        30
    31.1200        62
    31.1800        88
    31.2400       110
    31.3000       142
    31.3600       158
    31.4200       146
    31.4800       166
    31.5400       134
    31.6000        74
    31.6600        48
    31.7200        48
    31.7800        58
    31.8400        40
    31.9000        48
    31.9600        30
    32.0200        48
    32.0800        42
    32.1400        50
    32.2000        38
    32.2600        48
    32.3200        46
    32.3800        36
    32.4400        58
    32.5000        64
    32.5600       132
    32.6200       276
    32.6800       314
    32.7400       272
    32.8000       180
    32.8600       102
    32.9200       124
    32.9800       208
    33.0400       344
    33.1000       454
    33.1600       822
    33.2200       820
    33.2800       442
    33.3400       178
    33.4000        70
    33.4600        44
    33.5200        40
    33.5800        58
    33.6400        28
    33.7000        28
    33.7600        38
    33.8200        24
    33.8800        32
    33.9400        28
    34.0000        26
    34.0600        32
    34.1200        36
    34.1800        28
    34.2400        36
    34.3000        32
    34.3600        32
    34.4200        34
    34.4800        32
    34.5400        32
    34.6000        56
    34.6600        36
    34.7200        38
    34.7800        30
    34.8400        30
    34.9000        42
    34.9600        38
    35.0200        44
    35.0800        34
    35.1400        34
    35.2000        32
    35.2600        32
    35.3200        34
    35.3800        36
    35.4400        44
    35.5000        26
    35.5600        44
    35.6200        38
    35.6800        36
    35.7400        38
    35.8000        30
    35.8600        34
    35.9200        28
    35.9800        40
    36.0400        24
    36.1000        38
    36.1600        50
    36.2200        38
    36.2800        44
    36.3400        24
    36.4000        36
    36.4600        32
    36.5200        36
    36.5800        30
    36.6400        26
    36.7000        36
    36.7600        56
    36.8200        38
    36.8800        34
    36.9400        42
    37.0000        28
    37.0600        40
    37.1200        34
    37.1800        42
    37.2400        44
    37.3000        40
    37.3600        38
    37.4200        40
    37.4800        32
    37.5400        40
    37.6000        28
    37.6600        32
    37.7200        58
    37.7800        70
    37.8400        72
    37.9000       106
    37.9600        60
    38.0200        66
    38.0800        50
    38.1400        32
    38.2000        32
    38.2600        34
    38.3200        26
    38.3800        36
    38.4400        34
    38.5000        30
    38.5600        46
    38.6200        28
    38.6800        44
    38.7400        48
    38.8000        42
    38.8600        64
    38.9200        84
    38.9800       256
    39.0400       302
    39.1000       216
    39.1600       122
    39.2200        62
    39.2800        52
    39.3400        56
    39.4000        52
    39.4600        58
    39.5200        62
    39.5800        60
    39.6400        46
    39.7000        34
    39.7600        34
    39.8200        28
    39.8800        40
    39.9400        42
    40.0000        34
    40.0600        38
    40.1200        30
    40.1800        40
    40.2400        38
    40.3000        40
    40.3600        38
    40.4200        28
    40.4800        42
    40.5400        30
    40.6000        38
    40.6600        34
    40.7200        34
    40.7800        52
    40.8400        74
    40.9000       196
    40.9600       114
    41.0200       132
    41.0800        54
    41.1400        46
    41.2000        40
    41.2600        28
    41.3200        40
    41.3800        42
    41.4400        36
    41.5000        34
    41.5600        42
    41.6200        40
    41.6800        46
    41.7400        66
    41.8000       106
    41.8600       194
    41.9200       198
    41.9800       294
    42.0400       384
    42.1000       442
    42.1600       234
    42.2200       182
    42.2800        86
    42.3400        50
    42.4000        44
    42.4600        44
    42.5200        36
    42.5800        32
    42.6400        28
    42.7000        42
    42.7600        42
    42.8200        46
    42.8800        40
    42.9400        46
    43.0000        42
    43.0600        24
    43.1200        26
    43.1800        30
    43.2400        48
    43.3000        36
    43.3600        46
    43.4200        52
    43.4800        44
    43.5400        84
    43.6000       214
    43.6600       138
    43.7200       106
    43.7800        68
    43.8400        36
    43.9000        36
    43.9600        24
    44.0200        32
    44.0800        50
    44.1400        40
    44.2000        36
    44.2600        28
    44.3200        36
    44.3800        56
    44.4400        38
    44.5000        32
    44.5600        46
    44.6200        56
    44.6800        94
    44.7400       240
    44.8000       284
    44.8600       168
    44.9200       154
    44.9800       176
    45.0400       118
    45.1000       100
    45.1600        88
    45.2200        42
    45.2800        40
    45.3400        42
    45.4000        30
    45.4600        36
    45.5200        28
    45.5800        34
    45.6400        36
    45.7000        26
    45.7600        26
    45.8200        48
    45.8800        32
    45.9400        34
    46.0000        26
    46.0600        30
    46.1200        36
    46.1800        40
    46.2400        34
    46.3000        38
    46.3600        34
    46.4200        34
    46.4800        30
    46.5400        40
    46.6000        32
    46.6600        50
    46.7200        40
    46.7800        52
    46.8400        34
    46.9000        30
    46.9600        58
    47.0200        62
    47.0800        80
    47.1400       136
    47.2000       316
    47.2600       238
    47.3200       344
    47.3800       486
    47.4400       418
    47.5000       616
    47.5600       440
    47.6200       260
    47.6800       198
    47.7400       130
    47.8000       228
    47.8600       256
    47.9200       204
    47.9800       148
    48.0400        70
    48.1000        52
    48.1600        40
    48.2200        38
    48.2800        40
    48.3400        42
    48.4000        48
    48.4600        40
    48.5200        30
    48.5800        50
    48.6400        36
    48.7000        32
    48.7600        30
    48.8200        28
    48.8800        24
    48.9400        36
    49.0000        42
    49.0600        40
    49.1200        38
    49.1800        34
    49.2400        38
    49.3000        42
    49.3600        34
    49.4200        36
    49.4800        28
    49.5400        30
    49.6000        48
    49.6600        76
    49.7200        96
    49.7800        70
    49.8400        80
    49.9000        62
    49.9600        46
    50.0200       112
    50.0800       202
    50.1400       102
    50.2000       140
    50.2600        70
    50.3200        40
    50.3800        40
    50.4400        30
    50.5000        32
    50.5600        38
    50.6200        24
    50.6800        50
    50.7400        28
    50.8000        30
    50.8600        26
    50.9200        40
    50.9800        36
    51.0400        38
    51.1000        38
    51.1600        24
    51.2200        44
    51.2800        50
    51.3400        36
    51.4000        36
    51.4600        36
    51.5200        28
    51.5800        30
    51.6400        42
    51.7000        24
    51.7600        30
    51.8200        28
    51.8800        50
    51.9400        42
    52.0000        48
    52.0600       134
    52.1200       140
    52.1800       104
    52.2400       148
    52.3000        92
    52.3600        64
    52.4200        54
    52.4800        48
    52.5400        38
    52.6000        46
    52.6600        34
    52.7200        38
    52.7800        48
    52.8400        36
    52.9000        36
    52.9600        26
    53.0200        26
    53.0800        22
    53.1400        38
    53.2000        32
    53.2600        28
    53.3200        46
    53.3800        46
    53.4400        64
    53.5000       222
    53.5600       262
    53.6200       162
    53.6800       210
    53.7400       106
    53.8000        60
    53.8600        46
    53.9200        30
    53.9800        42
    54.0400        28
    54.1000        54
    54.1600        28
    54.2200        22
    54.2800        38
    54.3400        34
    54.4000        42
    54.4600        48
    54.5200        58
    54.5800        70
    54.6400        66
    54.7000        68
    54.7600        54
    54.8200        58
    54.8800        52
    54.9400        40
    55.0000        38
    55.0600        30
    55.1200        36
    55.1800        32
    55.2400        24
    55.3000        40
    55.3600        34
    55.4200        24
    55.4800        24
    55.5400        34
    55.6000        32
    55.6600        26
    55.7200        32
    55.7800        30
    55.8400        24
    55.9000        32
    55.9600        44
    56.0200        30
    56.0800        34
    56.1400        40
    56.2000        30
    56.2600        28
    56.3200        28
    56.3800        44
    56.4400        38
    56.5000        42
    56.5600        42
    56.6200        58
    56.6800       120
    56.7400       142
    56.8000        62
    56.8600       108
    56.9200        62
    56.9800        42
    57.0400        42
    57.1000        44
    57.1600        64
    57.2200       102
    57.2800        96
    57.3400        62
    57.4000        82
    57.4600        58
    57.5200        50
    57.5800        30
    57.6400        34
    57.7000        36
    57.7600        28
    57.8200        30
    57.8800        32
    57.9400        34
    58.0000        44
    58.0600        40
    58.1200        60
    58.1800        44
    58.2400        36
    58.3000        46
    58.3600        28
    58.4200        32
    58.4800        34
    58.5400        44
    58.6000        32
    58.6600        30
    58.7200        40
    58.7800        40
    58.8400        38
    58.9000        38
    58.9600        64
    59.0200       152
    59.0800       176
    59.1400       152
    59.2000       124
    59.2600        90
    59.3200        74
    59.3800        72
    59.4400        68
    59.5000        52
    59.5600        42
    59.6200        44
    59.6800        40
    59.7400        30
    59.8000        44
    59.8600        36
    59.9200        32
    59.9800        22
    60.0400        24
    60.1000        32
    60.1600        30
    60.2200        40
    60.2800        36
    60.3400        30
    60.4000        34
    60.4600        32
    60.5200        36
    60.5800        46
    60.6400        34
    60.7000        32
    60.7600        22
    60.8200        36
    60.8800        32
    60.9400        32
    61.0000        46
    61.0600        64
    61.1200        84
    61.1800       130
    61.2400        98
    61.3000        62
    61.3600       100
    61.4200        56
    61.4800        44
    61.5400        34
    61.6000        38
    61.6600        30
    61.7200        20
    61.7800        34
    61.8400        24
    61.9000        34
    61.9600        22
    62.0200        26
    62.0800        42
    62.1400        34
    62.2000        32
    62.2600        32
    62.3200        40
    62.3800        44
    62.4400        26
    62.5000        30
    62.5600        60
    62.6200        86
    62.6800        78
    62.7400        54
    62.8000        52
    62.8600        42
    62.9200        46
    62.9800        34
    63.0400        50
    63.1000        62
    63.1600        96
    63.2200       100
    63.2800        98
    63.3400        94
    63.4000       128
    63.4600       220
    63.5200       248
    63.5800       218
    63.6400       148
    63.7000       134
    63.7600       114
    63.8200        52
    63.8800        32
    63.9400        34
    64.0000        32
    64.0600        48
    64.1200        26
    64.1800        32
    64.2400        34
    64.3000        32
    64.3600        28
    64.4200        26
    64.4800        28
    64.5400        34
    64.6000        30
    64.6600        30
    64.7200        34
    64.7800        28
    64.8400        20
    64.9000        28
    64.9600        40
    65.0000        34