File: sl1/usgs/library06/DESCRIPT/new_xrd_results_to_be_added/Rhonda_Driscoll_xrd_runs/GDS37A---Scapolite-grp..txt
/////////////////////////////////////////////////////////////////////////////////
/// Profile Data Ascii Dump (XRD)                                             ///
/////////////////////////////////////////////////////////////////////////////////

  Group     : Swayze
  Data      : GDS37A
  File Name : GDS37A.RAW

# Profile Datafile
          comment             = Scapolite grp
          date & time         = 08-03-27 06:14:48

# Measurement Condition
    X-ray tube
          target              = Cu
          voltage             = 40.0 (kV)
          current             = 30.0 (mA)
    Slits
          divergence slit     = 2.00000 (deg)
          scatter slit        = 2.00000 (deg)
          receiving slit      = 0.15000 (mm)
    Scanning
          drive axis          = Theta-2Theta
          scan range          =    4.000 -   65.000
          scan mode           = Continuous Scan
          scan speed          =   2.0000 (deg/min)
          sampling pitch      =   0.0200 (deg)
          preset time         =   0.60 (sec)

# Data      [ Total No. = 3051 ]
  <2Theta>   <   I   >
     4.0000       208
     4.0600       186
     4.1200       192
     4.1800       198
     4.2400       202
     4.3000       172
     4.3600       188
     4.4200       160
     4.4800       154
     4.5400       156
     4.6000       180
     4.6600       156
     4.7200       136
     4.7800       168
     4.8400       144
     4.9000       162
     4.9600       174
     5.0200       148
     5.0800       154
     5.1400       158
     5.2000       138
     5.2600       158
     5.3200       160
     5.3800       156
     5.4400       152
     5.5000       152
     5.5600       162
     5.6200       130
     5.6800       152
     5.7400       136
     5.8000       168
     5.8600       158
     5.9200       162
     5.9800       146
     6.0400       176
     6.1000       170
     6.1600       140
     6.2200       154
     6.2800       160
     6.3400       132
     6.4000       152
     6.4600       142
     6.5200       138
     6.5800       120
     6.6400       126
     6.7000       140
     6.7600       128
     6.8200       136
     6.8800       124
     6.9400       138
     7.0000       114
     7.0600       120
     7.1200       132
     7.1800       108
     7.2400       126
     7.3000       110
     7.3600       128
     7.4200       112
     7.4800        92
     7.5400       102
     7.6000       106
     7.6600       118
     7.7200       108
     7.7800       124
     7.8400       116
     7.9000       112
     7.9600       116
     8.0200       110
     8.0800       118
     8.1400        90
     8.2000       104
     8.2600       116
     8.3200       108
     8.3800       102
     8.4400       114
     8.5000       116
     8.5600       108
     8.6200       114
     8.6800       114
     8.7400       138
     8.8000       100
     8.8600       120
     8.9200       100
     8.9800       142
     9.0400       118
     9.1000       118
     9.1600        96
     9.2200       114
     9.2800       124
     9.3400       112
     9.4000       122
     9.4600       122
     9.5200       120
     9.5800       102
     9.6400       110
     9.7000       116
     9.7600       106
     9.8200        96
     9.8800       110
     9.9400       110
    10.0000       104
    10.0600       136
    10.1200       108
    10.1800       144
    10.2400       138
    10.3000       130
    10.3600       116
    10.4200       100
    10.4800        88
    10.5400       120
    10.6000       102
    10.6600        98
    10.7200        94
    10.7800        88
    10.8400       102
    10.9000        90
    10.9600        94
    11.0200       102
    11.0800        94
    11.1400        76
    11.2000        94
    11.2600        94
    11.3200        92
    11.3800        92
    11.4400        74
    11.5000        76
    11.5600       100
    11.6200        92
    11.6800        84
    11.7400        84
    11.8000        86
    11.8600        94
    11.9200        94
    11.9800        90
    12.0400        80
    12.1000        82
    12.1600        86
    12.2200        76
    12.2800        80
    12.3400        92
    12.4000       100
    12.4600        76
    12.5200        88
    12.5800        70
    12.6400       110
    12.7000        66
    12.7600        76
    12.8200        66
    12.8800        90
    12.9400        60
    13.0000        60
    13.0600        66
    13.1200        72
    13.1800        78
    13.2400        80
    13.3000        78
    13.3600       100
    13.4200        82
    13.4800       100
    13.5400        94
    13.6000       100
    13.6600       180
    13.7200       210
    13.7800       108
    13.8400        78
    13.9000        84
    13.9600        80
    14.0200        80
    14.0800        58
    14.1400        86
    14.2000        72
    14.2600        78
    14.3200        68
    14.3800        88
    14.4400        82
    14.5000       132
    14.5600       154
    14.6200       176
    14.6800       100
    14.7400        74
    14.8000        50
    14.8600        54
    14.9200        70
    14.9800        68
    15.0400        56
    15.1000        72
    15.1600        60
    15.2200        54
    15.2800        68
    15.3400        64
    15.4000        72
    15.4600        72
    15.5200        60
    15.5800        54
    15.6400        88
    15.7000        54
    15.7600        54
    15.8200        58
    15.8800        54
    15.9400        52
    16.0000        58
    16.0600        52
    16.1200        72
    16.1800        54
    16.2400        52
    16.3000        60
    16.3600        52
    16.4200        64
    16.4800        56
    16.5400        58
    16.6000        68
    16.6600        58
    16.7200        62
    16.7800        58
    16.8400        48
    16.9000        52
    16.9600        54
    17.0200        50
    17.0800        56
    17.1400        44
    17.2000        50
    17.2600        62
    17.3200        60
    17.3800        56
    17.4400        72
    17.5000        56
    17.5600        64
    17.6200        46
    17.6800        52
    17.7400        48
    17.8000        50
    17.8600        50
    17.9200        62
    17.9800        54
    18.0400        58
    18.1000        64
    18.1600        54
    18.2200        52
    18.2800        44
    18.3400        48
    18.4000        48
    18.4600        50
    18.5200        58
    18.5800        54
    18.6400        60
    18.7000        62
    18.7600        50
    18.8200        44
    18.8800        68
    18.9400        52
    19.0000        42
    19.0600        56
    19.1200        60
    19.1800        52
    19.2400        56
    19.3000        42
    19.3600        50
    19.4200        52
    19.4800        42
    19.5400        50
    19.6000        50
    19.6600        48
    19.7200        36
    19.7800        56
    19.8400        52
    19.9000        70
    19.9600        58
    20.0200        80
    20.0800       112
    20.1400        98
    20.2000        60
    20.2600        60
    20.3200        50
    20.3800        52
    20.4400        64
    20.5000        56
    20.5600        76
    20.6200        86
    20.6800       126
    20.7400       126
    20.8000        82
    20.8600        50
    20.9200        66
    20.9800        48
    21.0400        54
    21.1000        48
    21.1600        38
    21.2200        50
    21.2800        70
    21.3400        42
    21.4000        54
    21.4600        56
    21.5200        44
    21.5800        54
    21.6400        60
    21.7000        38
    21.7600        38
    21.8200        62
    21.8800        56
    21.9400        54
    22.0000        56
    22.0600        44
    22.1200        58
    22.1800        48
    22.2400        46
    22.3000        44
    22.3600        50
    22.4200        38
    22.4800        46
    22.5400        46
    22.6000        44
    22.6600        46
    22.7200        44
    22.7800        58
    22.8400        96
    22.9000        98
    22.9600       110
    23.0200       120
    23.0800       220
    23.1400       682
    23.2000      1262
    23.2600       932
    23.3200       304
    23.3800        80
    23.4400        64
    23.5000        50
    23.5600        42
    23.6200        44
    23.6800        56
    23.7400        58
    23.8000        58
    23.8600        48
    23.9200        38
    23.9800        46
    24.0400        56
    24.1000        48
    24.1600        32
    24.2200        46
    24.2800        32
    24.3400        36
    24.4000        62
    24.4600        70
    24.5200        68
    24.5800        52
    24.6400        58
    24.7000        76
    24.7600       104
    24.8200       158
    24.8800       266
    24.9400       370
    25.0000       346
    25.0600       186
    25.1200        92
    25.1800       108
    25.2400       126
    25.3000       126
    25.3600       170
    25.4200       416
    25.4800       844
    25.5400      2114
    25.6000      2196
    25.6600      1162
    25.7200       382
    25.7800       116
    25.8400        90
    25.9000        66
    25.9600        72
    26.0200        50
    26.0800        66
    26.1400        52
    26.2000        46
    26.2600        54
    26.3200        40
    26.3800        44
    26.4400        56
    26.5000        42
    26.5600        44
    26.6200        52
    26.6800        56
    26.7400        38
    26.8000        48
    26.8600        46
    26.9200        46
    26.9800        40
    27.0400        44
    27.1000        44
    27.1600        40
    27.2200        50
    27.2800        40
    27.3400        54
    27.4000        56
    27.4600        46
    27.5200        44
    27.5800        48
    27.6400        68
    27.7000        78
    27.7600        50
    27.8200        54
    27.8800        38
    27.9400        36
    28.0000        46
    28.0600        36
    28.1200        40
    28.1800        48
    28.2400        44
    28.3000        52
    28.3600        48
    28.4200        50
    28.4800        42
    28.5400        54
    28.6000        50
    28.6600        54
    28.7200        88
    28.7800       100
    28.8400       204
    28.9000       370
    28.9600       788
    29.0200      1246
    29.0800      1288
    29.1400       568
    29.2000       236
    29.2600       124
    29.3200       170
    29.3800       348
    29.4400       672
    29.5000      1198
    29.5600       568
    29.6200       194
    29.6800        72
    29.7400        52
    29.8000        52
    29.8600        48
    29.9200        34
    29.9800        38
    30.0400        32
    30.1000        42
    30.1600        42
    30.2200        36
    30.2800        42
    30.3400        40
    30.4000        40
    30.4600        38
    30.5200        44
    30.5800        36
    30.6400        22
    30.7000        36
    30.7600        26
    30.8200        36
    30.8800        46
    30.9400        28
    31.0000        36
    31.0600        44
    31.1200        34
    31.1800        56
    31.2400       104
    31.3000       230
    31.3600       202
    31.4200       178
    31.4800       102
    31.5400        96
    31.6000        38
    31.6600        48
    31.7200        48
    31.7800        36
    31.8400        36
    31.9000        40
    31.9600        42
    32.0200        42
    32.0800        42
    32.1400        42
    32.2000        38
    32.2600        40
    32.3200        48
    32.3800        40
    32.4400        68
    32.5000        74
    32.5600        92
    32.6200       216
    32.6800       344
    32.7400       240
    32.8000       132
    32.8600        78
    32.9200        90
    32.9800       120
    33.0400       410
    33.1000       584
    33.1600       724
    33.2200       656
    33.2800       412
    33.3400       126
    33.4000        72
    33.4600        54
    33.5200        48
    33.5800        34
    33.6400        26
    33.7000        42
    33.7600        30
    33.8200        32
    33.8800        34
    33.9400        42
    34.0000        24
    34.0600        26
    34.1200        36
    34.1800        30
    34.2400        40
    34.3000        48
    34.3600        24
    34.4200        38
    34.4800        44
    34.5400        40
    34.6000        42
    34.6600        22
    34.7200        28
    34.7800        38
    34.8400        46
    34.9000        24
    34.9600        24
    35.0200        36
    35.0800        42
    35.1400        34
    35.2000        34
    35.2600        42
    35.3200        36
    35.3800        48
    35.4400        32
    35.5000        22
    35.5600        30
    35.6200        36
    35.6800        32
    35.7400        42
    35.8000        32
    35.8600        30
    35.9200        46
    35.9800        30
    36.0400        32
    36.1000        48
    36.1600        44
    36.2200        36
    36.2800        34
    36.3400        40
    36.4000        28
    36.4600        30
    36.5200        30
    36.5800        28
    36.6400        24
    36.7000        30
    36.7600        36
    36.8200        46
    36.8800        36
    36.9400        44
    37.0000        34
    37.0600        34
    37.1200        48
    37.1800        34
    37.2400        46
    37.3000        38
    37.3600        46
    37.4200        44
    37.4800        26
    37.5400        34
    37.6000        34
    37.6600        32
    37.7200        44
    37.7800        52
    37.8400        56
    37.9000        70
    37.9600        98
    38.0200        50
    38.0800        40
    38.1400        40
    38.2000        32
    38.2600        40
    38.3200        34
    38.3800        44
    38.4400        16
    38.5000        42
    38.5600        34
    38.6200        40
    38.6800        36
    38.7400        44
    38.8000        42
    38.8600        50
    38.9200        82
    38.9800       200
    39.0400       356
    39.1000       250
    39.1600       184
    39.2200       102
    39.2800        60
    39.3400        50
    39.4000        56
    39.4600        44
    39.5200        42
    39.5800        42
    39.6400        44
    39.7000        40
    39.7600        40
    39.8200        28
    39.8800        36
    39.9400        30
    40.0000        38
    40.0600        30
    40.1200        32
    40.1800        42
    40.2400        38
    40.3000        42
    40.3600        40
    40.4200        30
    40.4800        32
    40.5400        32
    40.6000        44
    40.6600        44
    40.7200        34
    40.7800        40
    40.8400        84
    40.9000       138
    40.9600       142
    41.0200        90
    41.0800        66
    41.1400        46
    41.2000        26
    41.2600        28
    41.3200        32
    41.3800        24
    41.4400        42
    41.5000        36
    41.5600        38
    41.6200        54
    41.6800        48
    41.7400        54
    41.8000        66
    41.8600       126
    41.9200       220
    41.9800       146
    42.0400       274
    42.1000       224
    42.1600       182
    42.2200       138
    42.2800        92
    42.3400        64
    42.4000        50
    42.4600        38
    42.5200        36
    42.5800        40
    42.6400        42
    42.7000        36
    42.7600        30
    42.8200        44
    42.8800        52
    42.9400        38
    43.0000        42
    43.0600        38
    43.1200        38
    43.1800        34
    43.2400        34
    43.3000        28
    43.3600        34
    43.4200        50
    43.4800        38
    43.5400        58
    43.6000        72
    43.6600        58
    43.7200        44
    43.7800        34
    43.8400        32
    43.9000        32
    43.9600        30
    44.0200        34
    44.0800        38
    44.1400        42
    44.2000        34
    44.2600        32
    44.3200        42
    44.3800        34
    44.4400        46
    44.5000        38
    44.5600        32
    44.6200        44
    44.6800        56
    44.7400        94
    44.8000       154
    44.8600       204
    44.9200       134
    44.9800       184
    45.0400       150
    45.1000       116
    45.1600        84
    45.2200        52
    45.2800        44
    45.3400        26
    45.4000        30
    45.4600        42
    45.5200        36
    45.5800        26
    45.6400        46
    45.7000        36
    45.7600        34
    45.8200        40
    45.8800        26
    45.9400        36
    46.0000        46
    46.0600        38
    46.1200        34
    46.1800        34
    46.2400        42
    46.3000        36
    46.3600        36
    46.4200        34
    46.4800        34
    46.5400        34
    46.6000        40
    46.6600        32
    46.7200        32
    46.7800        38
    46.8400        40
    46.9000        36
    46.9600        44
    47.0200        46
    47.0800        60
    47.1400        94
    47.2000       368
    47.2600       306
    47.3200       392
    47.3800       596
    47.4400       310
    47.5000       718
    47.5600       724
    47.6200       360
    47.6800       344
    47.7400       166
    47.8000       182
    47.8600       190
    47.9200       144
    47.9800       100
    48.0400        62
    48.1000        46
    48.1600        48
    48.2200        40
    48.2800        38
    48.3400        36
    48.4000        30
    48.4600        34
    48.5200        36
    48.5800        42
    48.6400        38
    48.7000        32
    48.7600        34
    48.8200        32
    48.8800        30
    48.9400        34
    49.0000        34
    49.0600        48
    49.1200        30
    49.1800        44
    49.2400        24
    49.3000        34
    49.3600        42
    49.4200        38
    49.4800        40
    49.5400        46
    49.6000        38
    49.6600        52
    49.7200       130
    49.7800        66
    49.8400        72
    49.9000        58
    49.9600        66
    50.0200        96
    50.0800       248
    50.1400       110
    50.2000       148
    50.2600        82
    50.3200        54
    50.3800        28
    50.4400        30
    50.5000        34
    50.5600        28
    50.6200        30
    50.6800        50
    50.7400        46
    50.8000        44
    50.8600        20
    50.9200        36
    50.9800        40
    51.0400        30
    51.1000        38
    51.1600        28
    51.2200        32
    51.2800        36
    51.3400        36
    51.4000        44
    51.4600        30
    51.5200        32
    51.5800        38
    51.6400        38
    51.7000        24
    51.7600        32
    51.8200        32
    51.8800        34
    51.9400        40
    52.0000        38
    52.0600        60
    52.1200        74
    52.1800        80
    52.2400        92
    52.3000        74
    52.3600        48
    52.4200        56
    52.4800        34
    52.5400        32
    52.6000        42
    52.6600        40
    52.7200        30
    52.7800        36
    52.8400        38
    52.9000        38
    52.9600        28
    53.0200        30
    53.0800        30
    53.1400        28
    53.2000        24
    53.2600        42
    53.3200        32
    53.3800        48
    53.4400        48
    53.5000        64
    53.5600       122
    53.6200       138
    53.6800        92
    53.7400       118
    53.8000        72
    53.8600        34
    53.9200        36
    53.9800        30
    54.0400        34
    54.1000        42
    54.1600        32
    54.2200        36
    54.2800        26
    54.3400        28
    54.4000        38
    54.4600        38
    54.5200        54
    54.5800        82
    54.6400        76
    54.7000        74
    54.7600        82
    54.8200        52
    54.8800        38
    54.9400        38
    55.0000        34
    55.0600        36
    55.1200        30
    55.1800        28
    55.2400        28
    55.3000        26
    55.3600        24
    55.4200        38
    55.4800        28
    55.5400        32
    55.6000        26
    55.6600        30
    55.7200        28
    55.7800        40
    55.8400        30
    55.9000        28
    55.9600        28
    56.0200        30
    56.0800        42
    56.1400        40
    56.2000        34
    56.2600        22
    56.3200        40
    56.3800        28
    56.4400        30
    56.5000        36
    56.5600        36
    56.6200        52
    56.6800       102
    56.7400       172
    56.8000        86
    56.8600        90
    56.9200        98
    56.9800        40
    57.0400        28
    57.1000        42
    57.1600        66
    57.2200        84
    57.2800       244
    57.3400        94
    57.4000        96
    57.4600        96
    57.5200        36
    57.5800        22
    57.6400        26
    57.7000        24
    57.7600        32
    57.8200        38
    57.8800        34
    57.9400        34
    58.0000        42
    58.0600        34
    58.1200        44
    58.1800        36
    58.2400        36
    58.3000        32
    58.3600        42
    58.4200        32
    58.4800        22
    58.5400        40
    58.6000        24
    58.6600        36
    58.7200        34
    58.7800        24
    58.8400        46
    58.9000        44
    58.9600        74
    59.0200       134
    59.0800       130
    59.1400       120
    59.2000       124
    59.2600       200
    59.3200        76
    59.3800        78
    59.4400       116
    59.5000        40
    59.5600        38
    59.6200        46
    59.6800        30
    59.7400        24
    59.8000        36
    59.8600        30
    59.9200        26
    59.9800        32
    60.0400        30
    60.1000        28
    60.1600        30
    60.2200        28
    60.2800        48
    60.3400        54
    60.4000        54
    60.4600        50
    60.5200        48
    60.5800        28
    60.6400        36
    60.7000        26
    60.7600        32
    60.8200        28
    60.8800        38
    60.9400        42
    61.0000        28
    61.0600        48
    61.1200        70
    61.1800       114
    61.2400       154
    61.3000       136
    61.3600        64
    61.4200        68
    61.4800        66
    61.5400        48
    61.6000        32
    61.6600        36
    61.7200        24
    61.7800        12
    61.8400        22
    61.9000        22
    61.9600        30
    62.0200        38
    62.0800        30
    62.1400        42
    62.2000        36
    62.2600        22
    62.3200        28
    62.3800        30
    62.4400        30
    62.5000        42
    62.5600        46
    62.6200        54
    62.6800        50
    62.7400        36
    62.8000        52
    62.8600        50
    62.9200        38
    62.9800        40
    63.0400        46
    63.1000        62
    63.1600        64
    63.2200        62
    63.2800        58
    63.3400        84
    63.4000        88
    63.4600       188
    63.5200       238
    63.5800       152
    63.6400       166
    63.7000       138
    63.7600        94
    63.8200        72
    63.8800        36
    63.9400        26
    64.0000        40
    64.0600        28
    64.1200        38
    64.1800        34
    64.2400        34
    64.3000        36
    64.3600        36
    64.4200        46
    64.4800        32
    64.5400        20
    64.6000        30
    64.6600        30
    64.7200        30
    64.7800        36
    64.8400        32
    64.9000        36
    64.9600        28
    65.0000        26