File: sl1/usgs/library06/DESCRIPT/new_xrd_results_to_be_added/Rhonda_Driscoll_xrd_runs/GDS33---Europium-Oxide.txt
/////////////////////////////////////////////////////////////////////////////////
/// Profile Data Ascii Dump (XRD)                                             ///
/////////////////////////////////////////////////////////////////////////////////

  Group     : Swayze
  Data      : GDS33
  File Name : GDS33.RAW

# Profile Datafile
          comment             = Europium Oxide
          date & time         = 08-03-25 06:53:08

# Measurement Condition
    X-ray tube
          target              = Cu
          voltage             = 40.0 (kV)
          current             = 30.0 (mA)
    Slits
          divergence slit     = 2.00000 (deg)
          scatter slit        = 2.00000 (deg)
          receiving slit      = 0.15000 (mm)
    Scanning
          drive axis          = Theta-2Theta
          scan range          =    4.000 -   65.000
          scan mode           = Continuous Scan
          scan speed          =   2.0000 (deg/min)
          sampling pitch      =   0.0200 (deg)
          preset time         =   0.60 (sec)

# Data      [ Total No. = 3051 ]
  <2Theta>   <   I   >
     4.0000       174
     4.0600       154
     4.1200       190
     4.1800       160
     4.2400       182
     4.3000       170
     4.3600       172
     4.4200       132
     4.4800       168
     4.5400       160
     4.6000       146
     4.6600       138
     4.7200       156
     4.7800       150
     4.8400       136
     4.9000       152
     4.9600       150
     5.0200       160
     5.0800       150
     5.1400       146
     5.2000       166
     5.2600       158
     5.3200       162
     5.3800       144
     5.4400       146
     5.5000       138
     5.5600       138
     5.6200       140
     5.6800       156
     5.7400       162
     5.8000       180
     5.8600       162
     5.9200       140
     5.9800       126
     6.0400       152
     6.1000       164
     6.1600       136
     6.2200       124
     6.2800       134
     6.3400       128
     6.4000       132
     6.4600       156
     6.5200       122
     6.5800       150
     6.6400       112
     6.7000       130
     6.7600       130
     6.8200       140
     6.8800       124
     6.9400       126
     7.0000       146
     7.0600       108
     7.1200       116
     7.1800       110
     7.2400       110
     7.3000       100
     7.3600       126
     7.4200       100
     7.4800       108
     7.5400       126
     7.6000       106
     7.6600        94
     7.7200       102
     7.7800       108
     7.8400       106
     7.9000       104
     7.9600       104
     8.0200       116
     8.0800       108
     8.1400       104
     8.2000       118
     8.2600       112
     8.3200       104
     8.3800       118
     8.4400        98
     8.5000       120
     8.5600       108
     8.6200       100
     8.6800        90
     8.7400       108
     8.8000        90
     8.8600       120
     8.9200        94
     8.9800       106
     9.0400        96
     9.1000       104
     9.1600       132
     9.2200       108
     9.2800        90
     9.3400        80
     9.4000        96
     9.4600       106
     9.5200       102
     9.5800       104
     9.6400       104
     9.7000       126
     9.7600       108
     9.8200        96
     9.8800       102
     9.9400        82
    10.0000        82
    10.0600       112
    10.1200       116
    10.1800        94
    10.2400        98
    10.3000        94
    10.3600        90
    10.4200        72
    10.4800        96
    10.5400        84
    10.6000        86
    10.6600       102
    10.7200        96
    10.7800       116
    10.8400        78
    10.9000        70
    10.9600        72
    11.0200        90
    11.0800        82
    11.1400        96
    11.2000        80
    11.2600        86
    11.3200        94
    11.3800        84
    11.4400        76
    11.5000        70
    11.5600        68
    11.6200        56
    11.6800        58
    11.7400        78
    11.8000        84
    11.8600        84
    11.9200        74
    11.9800        58
    12.0400        68
    12.1000        68
    12.1600        62
    12.2200        70
    12.2800        78
    12.3400        84
    12.4000        90
    12.4600        70
    12.5200        76
    12.5800        42
    12.6400        66
    12.7000        60
    12.7600        88
    12.8200        82
    12.8800        78
    12.9400        82
    13.0000        78
    13.0600        58
    13.1200        72
    13.1800        66
    13.2400        60
    13.3000        66
    13.3600        74
    13.4200        60
    13.4800        60
    13.5400        76
    13.6000        72
    13.6600        66
    13.7200        62
    13.7800        64
    13.8400        60
    13.9000        72
    13.9600        64
    14.0200        56
    14.0800        62
    14.1400        56
    14.2000        76
    14.2600        62
    14.3200        66
    14.3800        60
    14.4400        56
    14.5000        58
    14.5600        70
    14.6200        54
    14.6800        66
    14.7400        78
    14.8000        62
    14.8600        70
    14.9200        78
    14.9800        58
    15.0400        60
    15.1000        56
    15.1600        64
    15.2200        68
    15.2800        76
    15.3400        88
    15.4000        54
    15.4600        72
    15.5200        68
    15.5800        82
    15.6400        68
    15.7000        64
    15.7600        46
    15.8200        68
    15.8800        64
    15.9400        58
    16.0000        78
    16.0600        74
    16.1200        56
    16.1800        56
    16.2400        50
    16.3000        48
    16.3600        58
    16.4200        44
    16.4800        56
    16.5400        48
    16.6000        52
    16.6600        56
    16.7200        52
    16.7800        56
    16.8400        60
    16.9000        54
    16.9600        56
    17.0200        64
    17.0800        36
    17.1400        62
    17.2000        50
    17.2600        54
    17.3200        48
    17.3800        64
    17.4400        62
    17.5000        44
    17.5600        42
    17.6200        56
    17.6800        50
    17.7400        66
    17.8000        62
    17.8600        44
    17.9200        44
    17.9800        46
    18.0400        44
    18.1000        48
    18.1600        50
    18.2200        48
    18.2800        52
    18.3400        62
    18.4000        52
    18.4600        46
    18.5200        54
    18.5800        54
    18.6400        52
    18.7000        60
    18.7600        54
    18.8200        44
    18.8800        50
    18.9400        42
    19.0000        42
    19.0600        56
    19.1200        44
    19.1800        52
    19.2400        44
    19.3000        64
    19.3600        60
    19.4200        54
    19.4800        54
    19.5400        50
    19.6000        58
    19.6600        54
    19.7200        62
    19.7800        56
    19.8400        78
    19.9000        96
    19.9600       102
    20.0200        82
    20.0800        60
    20.1400        48
    20.2000        52
    20.2600        38
    20.3200        48
    20.3800        62
    20.4400        36
    20.5000        46
    20.5600        44
    20.6200        38
    20.6800        48
    20.7400        44
    20.8000        44
    20.8600        58
    20.9200        68
    20.9800        40
    21.0400        40
    21.1000        52
    21.1600        58
    21.2200        58
    21.2800        48
    21.3400        50
    21.4000        52
    21.4600        58
    21.5200        66
    21.5800        50
    21.6400        42
    21.7000        56
    21.7600        50
    21.8200        60
    21.8800        48
    21.9400        64
    22.0000        76
    22.0600        58
    22.1200        70
    22.1800        72
    22.2400        70
    22.3000        70
    22.3600        74
    22.4200        62
    22.4800        48
    22.5400        58
    22.6000        52
    22.6600        60
    22.7200        46
    22.7800        52
    22.8400        44
    22.9000        34
    22.9600        44
    23.0200        34
    23.0800        36
    23.1400        46
    23.2000        48
    23.2600        34
    23.3200        38
    23.3800        32
    23.4400        44
    23.5000        46
    23.5600        30
    23.6200        42
    23.6800        32
    23.7400        40
    23.8000        32
    23.8600        36
    23.9200        46
    23.9800        42
    24.0400        30
    24.1000        38
    24.1600        38
    24.2200        48
    24.2800        42
    24.3400        42
    24.4000        32
    24.4600        42
    24.5200        46
    24.5800        54
    24.6400        52
    24.7000        40
    24.7600        34
    24.8200        28
    24.8800        36
    24.9400        58
    25.0000        28
    25.0600        34
    25.1200        42
    25.1800        38
    25.2400        38
    25.3000        36
    25.3600        40
    25.4200        40
    25.4800        36
    25.5400        38
    25.6000        40
    25.6600        30
    25.7200        46
    25.7800        36
    25.8400        28
    25.9000        42
    25.9600        46
    26.0200        46
    26.0800        44
    26.1400        44
    26.2000        50
    26.2600        40
    26.3200        60
    26.3800        50
    26.4400        48
    26.5000        46
    26.5600        52
    26.6200        56
    26.6800        46
    26.7400        72
    26.8000        52
    26.8600        56
    26.9200        60
    26.9800        94
    27.0400        86
    27.1000       116
    27.1600       112
    27.2200       100
    27.2800       128
    27.3400       126
    27.4000       118
    27.4600       128
    27.5200       128
    27.5800       158
    27.6400       124
    27.7000       140
    27.7600       134
    27.8200       120
    27.8800       122
    27.9400       178
    28.0000       170
    28.0600       212
    28.1200       280
    28.1800       370
    28.2400       508
    28.3000       666
    28.3600       736
    28.4200       594
    28.4800       490
    28.5400       306
    28.6000       200
    28.6600       122
    28.7200       114
    28.7800        92
    28.8400        58
    28.9000        62
    28.9600        56
    29.0200        70
    29.0800        60
    29.1400        62
    29.2000        58
    29.2600        58
    29.3200        58
    29.3800        54
    29.4400        58
    29.5000        58
    29.5600        56
    29.6200        68
    29.6800        54
    29.7400        52
    29.8000        68
    29.8600        48
    29.9200        52
    29.9800        60
    30.0400        52
    30.1000        50
    30.1600        44
    30.2200        60
    30.2800        50
    30.3400        52
    30.4000        70
    30.4600        54
    30.5200        60
    30.5800        60
    30.6400        64
    30.7000        70
    30.7600        64
    30.8200        70
    30.8800        64
    30.9400        56
    31.0000        60
    31.0600        54
    31.1200        76
    31.1800        68
    31.2400        70
    31.3000        84
    31.3600        86
    31.4200       112
    31.4800        92
    31.5400       108
    31.6000        94
    31.6600        82
    31.7200       112
    31.7800        96
    31.8400       104
    31.9000       118
    31.9600        88
    32.0200       106
    32.0800        90
    32.1400        90
    32.2000       118
    32.2600       116
    32.3200        96
    32.3800        74
    32.4400        96
    32.5000        98
    32.5600       108
    32.6200       106
    32.6800       132
    32.7400       176
    32.8000       212
    32.8600       260
    32.9200       262
    32.9800       168
    33.0400       128
    33.1000        80
    33.1600        78
    33.2200        58
    33.2800        60
    33.3400        46
    33.4000        32
    33.4600        38
    33.5200        28
    33.5800        36
    33.6400        36
    33.7000        30
    33.7600        40
    33.8200        42
    33.8800        40
    33.9400        36
    34.0000        28
    34.0600        40
    34.1200        42
    34.1800        38
    34.2400        32
    34.3000        42
    34.3600        40
    34.4200        30
    34.4800        40
    34.5400        38
    34.6000        28
    34.6600        26
    34.7200        40
    34.7800        46
    34.8400        56
    34.9000        62
    34.9600        62
    35.0200        62
    35.0800        48
    35.1400        48
    35.2000        32
    35.2600        44
    35.3200        24
    35.3800        38
    35.4400        18
    35.5000        32
    35.5600        22
    35.6200        34
    35.6800        30
    35.7400        32
    35.8000        28
    35.8600        38
    35.9200        30
    35.9800        22
    36.0400        24
    36.1000        30
    36.1600        48
    36.2200        44
    36.2800        38
    36.3400        38
    36.4000        30
    36.4600        30
    36.5200        28
    36.5800        20
    36.6400        32
    36.7000        26
    36.7600        30
    36.8200        26
    36.8800        38
    36.9400        38
    37.0000        32
    37.0600        28
    37.1200        26
    37.1800        40
    37.2400        26
    37.3000        30
    37.3600        38
    37.4200        36
    37.4800        32
    37.5400        16
    37.6000        44
    37.6600        26
    37.7200        28
    37.7800        34
    37.8400        38
    37.9000        26
    37.9600        18
    38.0200        36
    38.0800        38
    38.1400        40
    38.2000        34
    38.2600        34
    38.3200        46
    38.3800        34
    38.4400        50
    38.5000        38
    38.5600        56
    38.6200        62
    38.6800        80
    38.7400        78
    38.8000        80
    38.8600        70
    38.9200        62
    38.9800        82
    39.0400        80
    39.1000        48
    39.1600        62
    39.2200        70
    39.2800        64
    39.3400        74
    39.4000        56
    39.4600        76
    39.5200        64
    39.5800        56
    39.6400        62
    39.7000        70
    39.7600        48
    39.8200        56
    39.8800        62
    39.9400        62
    40.0000        50
    40.0600        34
    40.1200        32
    40.1800        32
    40.2400        40
    40.3000        26
    40.3600        46
    40.4200        46
    40.4800        44
    40.5400        40
    40.6000        36
    40.6600        46
    40.7200        26
    40.7800        44
    40.8400        24
    40.9000        28
    40.9600        36
    41.0200        44
    41.0800        34
    41.1400        30
    41.2000        44
    41.2600        34
    41.3200        22
    41.3800        42
    41.4400        26
    41.5000        32
    41.5600        30
    41.6200        34
    41.6800        38
    41.7400        36
    41.8000        36
    41.8600        42
    41.9200        38
    41.9800        52
    42.0400        50
    42.1000        52
    42.1600        68
    42.2200        76
    42.2800        68
    42.3400        62
    42.4000        70
    42.4600        66
    42.5200        36
    42.5800        58
    42.6400        38
    42.7000        30
    42.7600        30
    42.8200        30
    42.8800        34
    42.9400        32
    43.0000        32
    43.0600        30
    43.1200        32
    43.1800        26
    43.2400        38
    43.3000        26
    43.3600        24
    43.4200        18
    43.4800        34
    43.5400        34
    43.6000        28
    43.6600        26
    43.7200        32
    43.7800        36
    43.8400        26
    43.9000        40
    43.9600        38
    44.0200        34
    44.0800        48
    44.1400        40
    44.2000        38
    44.2600        34
    44.3200        28
    44.3800        38
    44.4400        38
    44.5000        36
    44.5600        50
    44.6200        36
    44.6800        38
    44.7400        38
    44.8000        32
    44.8600        34
    44.9200        44
    44.9800        54
    45.0400        68
    45.1000        36
    45.1600        54
    45.2200        44
    45.2800        54
    45.3400        62
    45.4000        68
    45.4600        64
    45.5200        54
    45.5800        68
    45.6400        52
    45.7000        72
    45.7600        62
    45.8200        58
    45.8800        50
    45.9400        52
    46.0000        40
    46.0600        46
    46.1200        62
    46.1800        50
    46.2400        38
    46.3000        62
    46.3600        42
    46.4200        40
    46.4800        48
    46.5400        44
    46.6000        60
    46.6600        44
    46.7200        60
    46.7800        60
    46.8400        72
    46.9000        80
    46.9600       114
    47.0200       124
    47.0800       184
    47.1400       216
    47.2000       270
    47.2600       226
    47.3200       212
    47.3800       178
    47.4400       130
    47.5000        92
    47.5600        76
    47.6200        76
    47.6800        66
    47.7400        60
    47.8000        48
    47.8600        54
    47.9200        44
    47.9800        42
    48.0400        58
    48.1000        50
    48.1600        50
    48.2200        48
    48.2800        58
    48.3400        54
    48.4000        58
    48.4600        52
    48.5200        68
    48.5800        66
    48.6400        52
    48.7000        40
    48.7600        62
    48.8200        52
    48.8800        54
    48.9400        42
    49.0000        54
    49.0600        38
    49.1200        44
    49.1800        38
    49.2400        54
    49.3000        54
    49.3600        44
    49.4200        44
    49.4800        38
    49.5400        44
    49.6000        40
    49.6600        40
    49.7200        44
    49.7800        46
    49.8400        44
    49.9000        56
    49.9600        50
    50.0200        50
    50.0800        42
    50.1400        54
    50.2000        60
    50.2600        52
    50.3200        44
    50.3800        54
    50.4400        44
    50.5000        58
    50.5600        36
    50.6200        52
    50.6800        38
    50.7400        42
    50.8000        46
    50.8600        40
    50.9200        48
    50.9800        40
    51.0400        40
    51.1000        54
    51.1600        46
    51.2200        46
    51.2800        40
    51.3400        60
    51.4000        66
    51.4600        62
    51.5200        60
    51.5800        62
    51.6400        76
    51.7000        54
    51.7600        96
    51.8200        64
    51.8800        64
    51.9400        52
    52.0000        70
    52.0600        66
    52.1200        54
    52.1800        58
    52.2400        50
    52.3000        58
    52.3600        34
    52.4200        34
    52.4800        42
    52.5400        54
    52.6000        52
    52.6600        36
    52.7200        42
    52.7800        32
    52.8400        24
    52.9000        46
    52.9600        50
    53.0200        38
    53.0800        46
    53.1400        30
    53.2000        42
    53.2600        48
    53.3200        52
    53.3800        58
    53.4400        42
    53.5000        36
    53.5600        46
    53.6200        60
    53.6800        62
    53.7400        38
    53.8000        64
    53.8600        58
    53.9200        54
    53.9800        48
    54.0400        50
    54.1000        54
    54.1600        50
    54.2200        50
    54.2800        50
    54.3400        36
    54.4000        54
    54.4600        50
    54.5200        64
    54.5800        68
    54.6400        56
    54.7000        72
    54.7600        54
    54.8200        56
    54.8800        52
    54.9400        58
    55.0000        58
    55.0600        38
    55.1200        44
    55.1800        30
    55.2400        42
    55.3000        28
    55.3600        46
    55.4200        48
    55.4800        60
    55.5400        38
    55.6000        60
    55.6600        72
    55.7200        68
    55.7800        90
    55.8400        96
    55.9000       142
    55.9600       158
    56.0200       174
    56.0800       178
    56.1400       154
    56.2000       112
    56.2600       108
    56.3200        88
    56.3800        64
    56.4400        54
    56.5000        54
    56.5600        38
    56.6200        54
    56.6800        46
    56.7400        36
    56.8000        34
    56.8600        42
    56.9200        40
    56.9800        40
    57.0400        44
    57.1000        44
    57.1600        40
    57.2200        48
    57.2800        36
    57.3400        46
    57.4000        52
    57.4600        68
    57.5200        62
    57.5800        58
    57.6400        50
    57.7000        46
    57.7600        38
    57.8200        42
    57.8800        36
    57.9400        44
    58.0000        50
    58.0600        32
    58.1200        44
    58.1800        50
    58.2400        42
    58.3000        34
    58.3600        40
    58.4200        42
    58.4800        52
    58.5400        54
    58.6000        54
    58.6600        70
    58.7200        66
    58.7800        64
    58.8400        72
    58.9000        64
    58.9600        58
    59.0200        46
    59.0800        48
    59.1400        42
    59.2000        42
    59.2600        42
    59.3200        54
    59.3800        32
    59.4400        36
    59.5000        34
    59.5600        26
    59.6200        34
    59.6800        24
    59.7400        40
    59.8000        40
    59.8600        40
    59.9200        28
    59.9800        32
    60.0400        36
    60.1000        44
    60.1600        50
    60.2200        28
    60.2800        40
    60.3400        28
    60.4000        34
    60.4600        40
    60.5200        36
    60.5800        38
    60.6400        46
    60.7000        32
    60.7600        36
    60.8200        32
    60.8800        32
    60.9400        38
    61.0000        44
    61.0600        46
    61.1200        32
    61.1800        40
    61.2400        38
    61.3000        22
    61.3600        40
    61.4200        38
    61.4800        42
    61.5400        32
    61.6000        26
    61.6600        36
    61.7200        26
    61.7800        30
    61.8400        28
    61.9000        42
    61.9600        28
    62.0200        28
    62.0800        28
    62.1400        24
    62.2000        30
    62.2600        42
    62.3200        32
    62.3800        38
    62.4400        32
    62.5000        24
    62.5600        38
    62.6200        30
    62.6800        38
    62.7400        32
    62.8000        50
    62.8600        32
    62.9200        18
    62.9800        36
    63.0400        36
    63.1000        38
    63.1600        14
    63.2200        18
    63.2800        32
    63.3400        42
    63.4000        30
    63.4600        28
    63.5200        22
    63.5800        30
    63.6400        24
    63.7000        36
    63.7600        34
    63.8200        32
    63.8800        20
    63.9400        40
    64.0000        32
    64.0600        30
    64.1200        26
    64.1800        12
    64.2400        20
    64.3000        34
    64.3600        28
    64.4200        22
    64.4800        34
    64.5400        24
    64.6000        30
    64.6600        26
    64.7200        28
    64.7800        22
    64.8400        22
    64.9000        26
    64.9600        30
    65.0000        28