File: sl1/usgs/library06/DESCRIPT/new_xrd_results_to_be_added/Rhonda_Driscoll_xrd_runs/GDS41.txt
/////////////////////////////////////////////////////////////////////////////////
/// Profile Data Ascii Dump (XRD)                                             ///
/////////////////////////////////////////////////////////////////////////////////

  Group     : Swayze
  Data      : GDS41
  File Name : GDS41.RAW

# Profile Datafile
          comment             = Nontronite
          date & time         = 08-03-24 07:17:59

# Measurement Condition
    X-ray tube
          target              = Cu
          voltage             = 40.0 (kV)
          current             = 30.0 (mA)
    Slits
          divergence slit     = 2.00000 (deg)
          scatter slit        = 2.00000 (deg)
          receiving slit      = 0.15000 (mm)
    Scanning
          drive axis          = Theta-2Theta
          scan range          =    4.000 -   65.000
          scan mode           = Continuous Scan
          scan speed          =   2.0000 (deg/min)
          sampling pitch      =   0.0200 (deg)
          preset time         =   0.60 (sec)

# Data      [ Total No. = 3051 ]
  <2Theta>   <   I   >
     4.0000       202
     4.0600       198
     4.1200       174
     4.1800       202
     4.2400       186
     4.3000       212
     4.3600       170
     4.4200       214
     4.4800       172
     4.5400       178
     4.6000       188
     4.6600       172
     4.7200       188
     4.7800       152
     4.8400       180
     4.9000       170
     4.9600       156
     5.0200       184
     5.0800       170
     5.1400       164
     5.2000       200
     5.2600       184
     5.3200       174
     5.3800       154
     5.4400       176
     5.5000       178
     5.5600       194
     5.6200       198
     5.6800       184
     5.7400       188
     5.8000       196
     5.8600       204
     5.9200       212
     5.9800       244
     6.0400       232
     6.1000       256
     6.1600       260
     6.2200       224
     6.2800       198
     6.3400       176
     6.4000       172
     6.4600       172
     6.5200       184
     6.5800       140
     6.6400       162
     6.7000       146
     6.7600       150
     6.8200       148
     6.8800       132
     6.9400       130
     7.0000       142
     7.0600       144
     7.1200       140
     7.1800       104
     7.2400       104
     7.3000       140
     7.3600       122
     7.4200       122
     7.4800       128
     7.5400       144
     7.6000       132
     7.6600       132
     7.7200       156
     7.7800       144
     7.8400       122
     7.9000       132
     7.9600       144
     8.0200       184
     8.0800       174
     8.1400       198
     8.2000       338
     8.2600       504
     8.3200       232
     8.3800       138
     8.4400       112
     8.5000       132
     8.5600       130
     8.6200       108
     8.6800       118
     8.7400       120
     8.8000       132
     8.8600       110
     8.9200       128
     8.9800       102
     9.0400       118
     9.1000       110
     9.1600       136
     9.2200       130
     9.2800       124
     9.3400       132
     9.4000       146
     9.4600       110
     9.5200       140
     9.5800       128
     9.6400       110
     9.7000       132
     9.7600       120
     9.8200       128
     9.8800       124
     9.9400       104
    10.0000       132
    10.0600       130
    10.1200       104
    10.1800       104
    10.2400        98
    10.3000       112
    10.3600       118
    10.4200       112
    10.4800       104
    10.5400        98
    10.6000       126
    10.6600       104
    10.7200       124
    10.7800       102
    10.8400       112
    10.9000       112
    10.9600       114
    11.0200       128
    11.0800       150
    11.1400       206
    11.2000       174
    11.2600       214
    11.3200       226
    11.3800       270
    11.4400       394
    11.5000       600
    11.5600       904
    11.6200       832
    11.6800       220
    11.7400       130
    11.8000       156
    11.8600       118
    11.9200       136
    11.9800       146
    12.0400       140
    12.1000       152
    12.1600       160
    12.2200       210
    12.2800       248
    12.3400       264
    12.4000       278
    12.4600       256
    12.5200       292
    12.5800       366
    12.6400       794
    12.7000       392
    12.7600       170
    12.8200       166
    12.8800       402
    12.9400       486
    13.0000       700
    13.0600      1182
    13.1200       530
    13.1800       158
    13.2400       106
    13.3000       100
    13.3600        94
    13.4200        84
    13.4800        82
    13.5400        76
    13.6000        66
    13.6600        88
    13.7200        96
    13.7800        86
    13.8400        90
    13.9000        62
    13.9600        72
    14.0200        62
    14.0800        78
    14.1400        74
    14.2000        76
    14.2600        68
    14.3200        78
    14.3800        84
    14.4400        74
    14.5000        80
    14.5600        80
    14.6200       106
    14.6800        70
    14.7400        64
    14.8000        78
    14.8600        88
    14.9200       110
    14.9800        74
    15.0400        86
    15.1000       100
    15.1600       124
    15.2200       196
    15.2800       194
    15.3400       274
    15.4000       300
    15.4600       268
    15.5200       100
    15.5800        86
    15.6400        80
    15.7000        80
    15.7600        82
    15.8200        84
    15.8800        78
    15.9400        80
    16.0000        88
    16.0600        78
    16.1200       106
    16.1800       124
    16.2400       138
    16.3000       144
    16.3600       118
    16.4200       116
    16.4800       168
    16.5400       440
    16.6000      1120
    16.6600       824
    16.7200       268
    16.7800        98
    16.8400        90
    16.9000        98
    16.9600        74
    17.0200        72
    17.0800        66
    17.1400        70
    17.2000        84
    17.2600       102
    17.3200        82
    17.3800        84
    17.4400        72
    17.5000        78
    17.5600        76
    17.6200       100
    17.6800       108
    17.7400        68
    17.8000       106
    17.8600       172
    17.9200       152
    17.9800       142
    18.0400       180
    18.1000       126
    18.1600       110
    18.2200       102
    18.2800       116
    18.3400       140
    18.4000       170
    18.4600       214
    18.5200       318
    18.5800       568
    18.6400       992
    18.7000      1346
    18.7600      1282
    18.8200       452
    18.8800       144
    18.9400       146
    19.0000       156
    19.0600       188
    19.1200       168
    19.1800       244
    19.2400       304
    19.3000       370
    19.3600       424
    19.4200       670
    19.4800       802
    19.5400       858
    19.6000       392
    19.6600       190
    19.7200       150
    19.7800       128
    19.8400       118
    19.9000       124
    19.9600       100
    20.0200       162
    20.0800       224
    20.1400       646
    20.2000       516
    20.2600       664
    20.3200       476
    20.3800       210
    20.4400       140
    20.5000       178
    20.5600       266
    20.6200       428
    20.6800       706
    20.7400      1470
    20.8000       896
    20.8600       240
    20.9200       126
    20.9800        84
    21.0400       106
    21.1000        86
    21.1600        88
    21.2200        92
    21.2800       104
    21.3400       102
    21.4000        82
    21.4600        96
    21.5200        78
    21.5800       106
    21.6400       120
    21.7000      3936
    21.7600      9244
    21.8200       308
    21.8800       460
    21.9400       682
    22.0000       466
    22.0600       190
    22.1200       116
    22.1800       130
    22.2400       126
    22.3000       144
    22.3600       240
    22.4200       260
    22.4800       150
    22.5400       124
    22.6000       102
    22.6600       100
    22.7200        80
    22.7800        62
    22.8400        90
    22.9000       112
    22.9600       106
    23.0200        96
    23.0800        88
    23.1400       108
    23.2000       124
    23.2600       154
    23.3200       240
    23.3800       274
    23.4400       294
    23.5000       242
    23.5600       152
    23.6200       120
    23.6800       100
    23.7400        96
    23.8000       108
    23.8600       126
    23.9200       178
    23.9800       272
    24.0400       212
    24.1000       124
    24.1600       104
    24.2200       128
    24.2800       158
    24.3400       208
    24.4000       272
    24.4600       484
    24.5200       834
    24.5800      1262
    24.6400      1966
    24.7000      1642
    24.7600       904
    24.8200       520
    24.8800       562
    24.9400       818
    25.0000      1878
    25.0600      6922
    25.1200      6828
    25.1800      2702
    25.2400       530
    25.3000       224
    25.3600       176
    25.4200       152
    25.4800       116
    25.5400       168
    25.6000       142
    25.6600       130
    25.7200       144
    25.7800       180
    25.8400       166
    25.9000       122
    25.9600        98
    26.0200       106
    26.0800       104
    26.1400       108
    26.2000       124
    26.2600       192
    26.3200       534
    26.3800       416
    26.4400       300
    26.5000       214
    26.5600       116
    26.6200       116
    26.6800       108
    26.7400       100
    26.8000        84
    26.8600        94
    26.9200       112
    26.9800       140
    27.0400       186
    27.1000       196
    27.1600       272
    27.2200       224
    27.2800       240
    27.3400       182
    27.4000       154
    27.4600       152
    27.5200       156
    27.5800       190
    27.6400       102
    27.7000        94
    27.7600        84
    27.8200        90
    27.8800        70
    27.9400        90
    28.0000        56
    28.0600        88
    28.1200        74
    28.1800        80
    28.2400        76
    28.3000        84
    28.3600        98
    28.4200       156
    28.4800       204
    28.5400       264
    28.6000       176
    28.6600        90
    28.7200        76
    28.7800        56
    28.8400        66
    28.9000        60
    28.9600        74
    29.0200        72
    29.0800        68
    29.1400        64
    29.2000        66
    29.2600        74
    29.3200        80
    29.3800        70
    29.4400        90
    29.5000        82
    29.5600        62
    29.6200        66
    29.6800        62
    29.7400        74
    29.8000        58
    29.8600        66
    29.9200        74
    29.9800        64
    30.0400        82
    30.1000        82
    30.1600        80
    30.2200       102
    30.2800       106
    30.3400       158
    30.4000       194
    30.4600       180
    30.5200       148
    30.5800       122
    30.6400       130
    30.7000       164
    30.7600       298
    30.8200       400
    30.8800       658
    30.9400       552
    31.0000       330
    31.0600       164
    31.1200       150
    31.1800       346
    31.2400       242
    31.3000       184
    31.3600       114
    31.4200       130
    31.4800       118
    31.5400       128
    31.6000       144
    31.6600       226
    31.7200       320
    31.7800       522
    31.8400       486
    31.9000       396
    31.9600       232
    32.0200       160
    32.0800       138
    32.1400       136
    32.2000       112
    32.2600       102
    32.3200       100
    32.3800       136
    32.4400       222
    32.5000       262
    32.5600       204
    32.6200       146
    32.6800       100
    32.7400        98
    32.8000       122
    32.8600       138
    32.9200       154
    32.9800       114
    33.0400        90
    33.1000       102
    33.1600       190
    33.2200       170
    33.2800       230
    33.3400       406
    33.4000       240
    33.4600       268
    33.5200       172
    33.5800       152
    33.6400       156
    33.7000       156
    33.7600       144
    33.8200        92
    33.8800        94
    33.9400        82
    34.0000        82
    34.0600        94
    34.1200       112
    34.1800        98
    34.2400       130
    34.3000       150
    34.3600       192
    34.4200       198
    34.4800       224
    34.5400       212
    34.6000       218
    34.6600       222
    34.7200       200
    34.7800       168
    34.8400       152
    34.9000       148
    34.9600       168
    35.0200       222
    35.0800       236
    35.1400       244
    35.2000       156
    35.2600       142
    35.3200       154
    35.3800       204
    35.4400       200
    35.5000       142
    35.5600       114
    35.6200       134
    35.6800       164
    35.7400       144
    35.8000       112
    35.8600       140
    35.9200       156
    35.9800       234
    36.0400       258
    36.1000       302
    36.1600       216
    36.2200       160
    36.2800       106
    36.3400       112
    36.4000       174
    36.4600       186
    36.5200       246
    36.5800       346
    36.6400       354
    36.7000       294
    36.7600       218
    36.8200       214
    36.8800       182
    36.9400       144
    37.0000       160
    37.0600       154
    37.1200       192
    37.1800       228
    37.2400       262
    37.3000       184
    37.3600       158
    37.4200       132
    37.4800       152
    37.5400       158
    37.6000       144
    37.6600       126
    37.7200       110
    37.7800       118
    37.8400       128
    37.9000       130
    37.9600       162
    38.0200       228
    38.0800       276
    38.1400       346
    38.2000       340
    38.2600       444
    38.3200       526
    38.3800       688
    38.4400       404
    38.5000       292
    38.5600       134
    38.6200       124
    38.6800       124
    38.7400       146
    38.8000       158
    38.8600       162
    38.9200       192
    38.9800       226
    39.0400       170
    39.1000       140
    39.1600       146
    39.2200       128
    39.2800       102
    39.3400        94
    39.4000       120
    39.4600       122
    39.5200       168
    39.5800       226
    39.6400       298
    39.7000       400
    39.7600       420
    39.8200       372
    39.8800       296
    39.9400       212
    40.0000       208
    40.0600       178
    40.1200       204
    40.1800       220
    40.2400       234
    40.3000       166
    40.3600       178
    40.4200       142
    40.4800       194
    40.5400       112
    40.6000       100
    40.6600        76
    40.7200        76
    40.7800        86
    40.8400        74
    40.9000       106
    40.9600        92
    41.0200       120
    41.0800       154
    41.1400       128
    41.2000       144
    41.2600       148
    41.3200       150
    41.3800       202
    41.4400       190
    41.5000       150
    41.5600       136
    41.6200        70
    41.6800        80
    41.7400        72
    41.8000        80
    41.8600        74
    41.9200        72
    41.9800        94
    42.0400        74
    42.1000        60
    42.1600        62
    42.2200        80
    42.2800        76
    42.3400        82
    42.4000        80
    42.4600       104
    42.5200       108
    42.5800       104
    42.6400        96
    42.7000        60
    42.7600        90
    42.8200        74
    42.8800        86
    42.9400       102
    43.0000       102
    43.0600       100
    43.1200        98
    43.1800       144
    43.2400       170
    43.3000       162
    43.3600       194
    43.4200       220
    43.4800       190
    43.5400       184
    43.6000       164
    43.6600       150
    43.7200       148
    43.7800       188
    43.8400       142
    43.9000       118
    43.9600        94
    44.0200        82
    44.0800        78
    44.1400       104
    44.2000        94
    44.2600        86
    44.3200        90
    44.3800        98
    44.4400        84
    44.5000        86
    44.5600       118
    44.6200        98
    44.6800        98
    44.7400       116
    44.8000       118
    44.8600       130
    44.9200       138
    44.9800       166
    45.0400       142
    45.1000       148
    45.1600       172
    45.2200       114
    45.2800       114
    45.3400       114
    45.4000        84
    45.4600        98
    45.5200        82
    45.5800        82
    45.6400        78
    45.7000        82
    45.7600        80
    45.8200        62
    45.8800        84
    45.9400        88
    46.0000        60
    46.0600        72
    46.1200        80
    46.1800       104
    46.2400       122
    46.3000       146
    46.3600        98
    46.4200       108
    46.4800        80
    46.5400       140
    46.6000       190
    46.6600       160
    46.7200       180
    46.7800       146
    46.8400       144
    46.9000       168
    46.9600       224
    47.0200       166
    47.0800       184
    47.1400       188
    47.2000       132
    47.2600       116
    47.3200       106
    47.3800        94
    47.4400       106
    47.5000       142
    47.5600       188
    47.6200       166
    47.6800       144
    47.7400       152
    47.8000       144
    47.8600       140
    47.9200       142
    47.9800       142
    48.0400       172
    48.1000       162
    48.1600       118
    48.2200       110
    48.2800       136
    48.3400       124
    48.4000       118
    48.4600       136
    48.5200       134
    48.5800       134
    48.6400       104
    48.7000        92
    48.7600        90
    48.8200       104
    48.8800        88
    48.9400        90
    49.0000       118
    49.0600       136
    49.1200       128
    49.1800       152
    49.2400       120
    49.3000        96
    49.3600        86
    49.4200        78
    49.4800        72
    49.5400        74
    49.6000        72
    49.6600        72
    49.7200        66
    49.7800       108
    49.8400       124
    49.9000       102
    49.9600        98
    50.0200       108
    50.0800        88
    50.1400        82
    50.2000       100
    50.2600       130
    50.3200       136
    50.3800       114
    50.4400       124
    50.5000       106
    50.5600       102
    50.6200       130
    50.6800       138
    50.7400       116
    50.8000       162
    50.8600        96
    50.9200        96
    50.9800        70
    51.0400        54
    51.1000        60
    51.1600        56
    51.2200        92
    51.2800        90
    51.3400        90
    51.4000        88
    51.4600        68
    51.5200        94
    51.5800       172
    51.6400       156
    51.7000       118
    51.7600       124
    51.8200       118
    51.8800       108
    51.9400        98
    52.0000       128
    52.0600       100
    52.1200        80
    52.1800        92
    52.2400        80
    52.3000        72
    52.3600        62
    52.4200        68
    52.4800        74
    52.5400        80
    52.6000        88
    52.6600       102
    52.7200        84
    52.7800        76
    52.8400        72
    52.9000        60
    52.9600        74
    53.0200        72
    53.0800        92
    53.1400        96
    53.2000       110
    53.2600        92
    53.3200        96
    53.3800        76
    53.4400        78
    53.5000        96
    53.5600        82
    53.6200        90
    53.6800        98
    53.7400       140
    53.8000       124
    53.8600       170
    53.9200       220
    53.9800       180
    54.0400       172
    54.1000       150
    54.1600        96
    54.2200       108
    54.2800        72
    54.3400        72
    54.4000        60
    54.4600        70
    54.5200       102
    54.5800        80
    54.6400        88
    54.7000       112
    54.7600        96
    54.8200        84
    54.8800       110
    54.9400        80
    55.0000       112
    55.0600        88
    55.1200        98
    55.1800       102
    55.2400       120
    55.3000        88
    55.3600        90
    55.4200        82
    55.4800        92
    55.5400        78
    55.6000        64
    55.6600        76
    55.7200        84
    55.7800        72
    55.8400        76
    55.9000        88
    55.9600        82
    56.0200       100
    56.0800        80
    56.1400        64
    56.2000        80
    56.2600        90
    56.3200        66
    56.3800        74
    56.4400        66
    56.5000        66
    56.5600        82
    56.6200        88
    56.6800        62
    56.7400        66
    56.8000        58
    56.8600        74
    56.9200        62
    56.9800        72
    57.0400        66
    57.1000        68
    57.1600        82
    57.2200        76
    57.2800        74
    57.3400        80
    57.4000        84
    57.4600       106
    57.5200        90
    57.5800        92
    57.6400        90
    57.7000        78
    57.7600        72
    57.8200        70
    57.8800        68
    57.9400        80
    58.0000        84
    58.0600        76
    58.1200        74
    58.1800        64
    58.2400        84
    58.3000        58
    58.3600        76
    58.4200        68
    58.4800        82
    58.5400        74
    58.6000        76
    58.6600        94
    58.7200       102
    58.7800        92
    58.8400       102
    58.9000       106
    58.9600       116
    59.0200       164
    59.0800       150
    59.1400       122
    59.2000       110
    59.2600       124
    59.3200        88
    59.3800        94
    59.4400        72
    59.5000        90
    59.5600       102
    59.6200       134
    59.6800       138
    59.7400       146
    59.8000       154
    59.8600       122
    59.9200       154
    59.9800       140
    60.0400       134
    60.1000        98
    60.1600       100
    60.2200       102
    60.2800        90
    60.3400        98
    60.4000       140
    60.4600       110
    60.5200        98
    60.5800       114
    60.6400        70
    60.7000        88
    60.7600        84
    60.8200        88
    60.8800        64
    60.9400        80
    61.0000        82
    61.0600        88
    61.1200        88
    61.1800        62
    61.2400        80
    61.3000        92
    61.3600       104
    61.4200        86
    61.4800        92
    61.5400       104
    61.6000        90
    61.6600        78
    61.7200        80
    61.7800        68
    61.8400        78
    61.9000        72
    61.9600        64
    62.0200        72
    62.0800        74
    62.1400        66
    62.2000        60
    62.2600        60
    62.3200        64
    62.3800        58
    62.4400        50
    62.5000        50
    62.5600        60
    62.6200        82
    62.6800        72
    62.7400        58
    62.8000        68
    62.8600        66
    62.9200        66
    62.9800        72
    63.0400        58
    63.1000        70
    63.1600        60
    63.2200        88
    63.2800        62
    63.3400        68
    63.4000       122
    63.4600       114
    63.5200        94
    63.5800        80
    63.6400       108
    63.7000        92
    63.7600        72
    63.8200        88
    63.8800        68
    63.9400        66
    64.0000        68
    64.0600        62
    64.1200        66
    64.1800        64
    64.2400        74
    64.3000       102
    64.3600        64
    64.4200        58
    64.4800        76
    64.5400        70
    64.6000        52
    64.6600        82
    64.7200        72
    64.7800        78
    64.8400        64
    64.9000        82
    64.9600        82
    65.0000        76