File: sl1/usgs/library06/DESCRIPT/new_xrd_results_to_be_added/Rhonda_Driscoll_xrd_runs/GDS46---Scapolite.txt
/////////////////////////////////////////////////////////////////////////////////
/// Profile Data Ascii Dump (XRD)                                             ///
/////////////////////////////////////////////////////////////////////////////////

  Group     : Swayze
  Data      : GDS46
  File Name : GDS46.RAW

# Profile Datafile
          comment             = Scapolite
          date & time         = 08-03-25 06:22:10

# Measurement Condition
    X-ray tube
          target              = Cu
          voltage             = 40.0 (kV)
          current             = 30.0 (mA)
    Slits
          divergence slit     = 2.00000 (deg)
          scatter slit        = 2.00000 (deg)
          receiving slit      = 0.15000 (mm)
    Scanning
          drive axis          = Theta-2Theta
          scan range          =    4.000 -   65.000
          scan mode           = Continuous Scan
          scan speed          =   2.0000 (deg/min)
          sampling pitch      =   0.0200 (deg)
          preset time         =   0.60 (sec)

# Data      [ Total No. = 3051 ]
  <2Theta>   <   I   >
     4.0000       176
     4.0600       202
     4.1200       166
     4.1800       166
     4.2400       168
     4.3000       182
     4.3600       178
     4.4200       176
     4.4800       156
     4.5400       148
     4.6000       146
     4.6600       180
     4.7200       182
     4.7800       144
     4.8400       138
     4.9000       156
     4.9600       140
     5.0200       168
     5.0800       128
     5.1400       158
     5.2000       154
     5.2600       154
     5.3200       172
     5.3800       154
     5.4400       168
     5.5000       156
     5.5600       152
     5.6200       172
     5.6800       144
     5.7400       136
     5.8000       144
     5.8600       138
     5.9200       140
     5.9800       156
     6.0400       162
     6.1000       150
     6.1600       160
     6.2200       142
     6.2800       126
     6.3400       146
     6.4000       150
     6.4600       144
     6.5200       152
     6.5800        96
     6.6400       124
     6.7000       130
     6.7600       126
     6.8200       128
     6.8800       134
     6.9400       108
     7.0000       108
     7.0600       134
     7.1200       102
     7.1800       108
     7.2400       112
     7.3000       110
     7.3600       104
     7.4200       104
     7.4800       106
     7.5400       114
     7.6000       118
     7.6600       128
     7.7200       106
     7.7800        98
     7.8400       118
     7.9000       108
     7.9600       100
     8.0200       116
     8.0800       114
     8.1400       110
     8.2000       110
     8.2600       104
     8.3200       112
     8.3800       132
     8.4400       110
     8.5000       110
     8.5600       126
     8.6200       136
     8.6800       100
     8.7400       112
     8.8000       104
     8.8600       116
     8.9200       106
     8.9800        98
     9.0400       122
     9.1000       126
     9.1600       120
     9.2200       120
     9.2800       124
     9.3400       104
     9.4000       108
     9.4600       102
     9.5200       106
     9.5800       108
     9.6400        98
     9.7000       108
     9.7600       100
     9.8200       104
     9.8800       108
     9.9400       104
    10.0000        86
    10.0600       116
    10.1200        80
    10.1800       108
    10.2400       128
    10.3000       114
    10.3600       172
    10.4200       128
    10.4800       116
    10.5400        82
    10.6000       112
    10.6600        92
    10.7200       114
    10.7800        94
    10.8400       100
    10.9000        82
    10.9600        70
    11.0200        82
    11.0800        82
    11.1400        96
    11.2000        98
    11.2600        80
    11.3200        92
    11.3800        64
    11.4400        92
    11.5000        70
    11.5600        76
    11.6200        76
    11.6800        78
    11.7400        82
    11.8000        70
    11.8600        66
    11.9200        76
    11.9800        66
    12.0400        86
    12.1000        80
    12.1600        94
    12.2200        74
    12.2800        78
    12.3400        62
    12.4000        78
    12.4600        88
    12.5200        96
    12.5800        80
    12.6400        62
    12.7000        64
    12.7600        84
    12.8200        70
    12.8800        76
    12.9400        64
    13.0000        84
    13.0600        72
    13.1200        54
    13.1800        68
    13.2400        70
    13.3000        66
    13.3600        78
    13.4200        72
    13.4800        74
    13.5400        74
    13.6000        82
    13.6600        72
    13.7200        84
    13.7800       104
    13.8400       132
    13.9000        80
    13.9600        94
    14.0200        74
    14.0800        58
    14.1400        62
    14.2000        52
    14.2600        86
    14.3200        74
    14.3800        70
    14.4400        70
    14.5000        68
    14.5600       114
    14.6200        98
    14.6800       212
    14.7400       160
    14.8000       104
    14.8600        76
    14.9200        62
    14.9800        46
    15.0400        64
    15.1000        56
    15.1600        62
    15.2200        66
    15.2800        54
    15.3400        64
    15.4000        72
    15.4600        50
    15.5200        66
    15.5800        54
    15.6400        54
    15.7000        58
    15.7600        58
    15.8200        60
    15.8800        70
    15.9400        58
    16.0000        68
    16.0600        48
    16.1200        58
    16.1800        58
    16.2400        52
    16.3000        56
    16.3600        48
    16.4200        54
    16.4800        52
    16.5400        52
    16.6000        50
    16.6600        42
    16.7200        60
    16.7800        60
    16.8400        56
    16.9000        68
    16.9600        54
    17.0200        60
    17.0800        54
    17.1400        40
    17.2000        64
    17.2600        50
    17.3200        48
    17.3800        42
    17.4400        42
    17.5000        54
    17.5600        50
    17.6200        42
    17.6800        36
    17.7400        54
    17.8000        52
    17.8600        48
    17.9200        48
    17.9800        52
    18.0400        58
    18.1000        58
    18.1600        42
    18.2200        44
    18.2800        64
    18.3400        44
    18.4000        42
    18.4600        58
    18.5200        42
    18.5800        54
    18.6400        76
    18.7000        62
    18.7600        54
    18.8200        46
    18.8800        68
    18.9400        56
    19.0000        42
    19.0600        46
    19.1200        52
    19.1800        50
    19.2400        48
    19.3000        44
    19.3600        42
    19.4200        44
    19.4800        38
    19.5400        42
    19.6000        36
    19.6600        42
    19.7200        46
    19.7800        40
    19.8400        42
    19.9000        44
    19.9600        40
    20.0200        56
    20.0800        58
    20.1400        66
    20.2000        74
    20.2600        92
    20.3200        78
    20.3800        46
    20.4400        34
    20.5000        44
    20.5600        38
    20.6200        60
    20.6800        76
    20.7400        74
    20.8000        86
    20.8600       118
    20.9200        76
    20.9800        50
    21.0400        38
    21.1000        46
    21.1600        46
    21.2200        54
    21.2800        32
    21.3400        40
    21.4000        44
    21.4600        78
    21.5200        46
    21.5800        54
    21.6400        30
    21.7000        60
    21.7600        50
    21.8200        42
    21.8800        46
    21.9400        50
    22.0000        68
    22.0600        88
    22.1200        74
    22.1800        64
    22.2400        40
    22.3000        46
    22.3600        42
    22.4200        54
    22.4800        40
    22.5400        56
    22.6000        46
    22.6600        52
    22.7200        52
    22.7800        50
    22.8400        58
    22.9000        54
    22.9600        60
    23.0200       128
    23.0800       136
    23.1400       144
    23.2000       482
    23.2600       646
    23.3200      1334
    23.3800       960
    23.4400       314
    23.5000       184
    23.5600       170
    23.6200        94
    23.6800        76
    23.7400        52
    23.8000        54
    23.8600        52
    23.9200        60
    23.9800        70
    24.0400        62
    24.1000        52
    24.1600        70
    24.2200        56
    24.2800        66
    24.3400        72
    24.4000        52
    24.4600        40
    24.5200        54
    24.5800        46
    24.6400        56
    24.7000        62
    24.7600        56
    24.8200        70
    24.8800       120
    24.9400       158
    25.0000       290
    25.0600       670
    25.1200       418
    25.1800       176
    25.2400       102
    25.3000        90
    25.3600       102
    25.4200       128
    25.4800       188
    25.5400       592
    25.6000       970
    25.6600      1028
    25.7200      1240
    25.7800       742
    25.8400       268
    25.9000       124
    25.9600       106
    26.0200       116
    26.0800        66
    26.1400        50
    26.2000        52
    26.2600        54
    26.3200        64
    26.3800        56
    26.4400        62
    26.5000        48
    26.5600        50
    26.6200        48
    26.6800        40
    26.7400        48
    26.8000        52
    26.8600        36
    26.9200        38
    26.9800        42
    27.0400        46
    27.1000        44
    27.1600        44
    27.2200        36
    27.2800        46
    27.3400        34
    27.4000        50
    27.4600        48
    27.5200        70
    27.5800        58
    27.6400        84
    27.7000       168
    27.7600       190
    27.8200       250
    27.8800       372
    27.9400       352
    28.0000       828
    28.0600       580
    28.1200       206
    28.1800        76
    28.2400        68
    28.3000        42
    28.3600        64
    28.4200        68
    28.4800        46
    28.5400        42
    28.6000        36
    28.6600        42
    28.7200        50
    28.7800        60
    28.8400        72
    28.9000       128
    28.9600       134
    29.0200       184
    29.0800       534
    29.1400       924
    29.2000      1450
    29.2600       928
    29.3200       376
    29.3800       132
    29.4400       188
    29.5000       428
    29.5600       346
    29.6200      1070
    29.6800       614
    29.7400       272
    29.8000        64
    29.8600        54
    29.9200        52
    29.9800        46
    30.0400        42
    30.1000        60
    30.1600        44
    30.2200        46
    30.2800        36
    30.3400        48
    30.4000        46
    30.4600        40
    30.5200        64
    30.5800        48
    30.6400        42
    30.7000        46
    30.7600        44
    30.8200        42
    30.8800        38
    30.9400        40
    31.0000        38
    31.0600        38
    31.1200        30
    31.1800        42
    31.2400        42
    31.3000        62
    31.3600        88
    31.4200       160
    31.4800       160
    31.5400       170
    31.6000       112
    31.6600        68
    31.7200        56
    31.7800        38
    31.8400        40
    31.9000        38
    31.9600        42
    32.0200        38
    32.0800        38
    32.1400        44
    32.2000        32
    32.2600        36
    32.3200        36
    32.3800        38
    32.4400        34
    32.5000        58
    32.5600        50
    32.6200        64
    32.6800       162
    32.7400       176
    32.8000       236
    32.8600       216
    32.9200       168
    32.9800        82
    33.0400       104
    33.1000       102
    33.1600       294
    33.2200       492
    33.2800       590
    33.3400      1014
    33.4000       656
    33.4600       316
    33.5200        88
    33.5800        68
    33.6400        50
    33.7000        38
    33.7600        36
    33.8200        32
    33.8800        52
    33.9400        46
    34.0000        40
    34.0600        38
    34.1200        28
    34.1800        24
    34.2400        32
    34.3000        28
    34.3600        28
    34.4200        26
    34.4800        36
    34.5400        22
    34.6000        32
    34.6600        24
    34.7200        26
    34.7800        36
    34.8400        44
    34.9000        26
    34.9600        50
    35.0200        64
    35.0800        56
    35.1400        58
    35.2000        48
    35.2600        38
    35.3200        34
    35.3800        36
    35.4400        30
    35.5000        38
    35.5600        26
    35.6200        38
    35.6800        30
    35.7400        46
    35.8000        38
    35.8600        48
    35.9200        38
    35.9800        28
    36.0400        40
    36.1000        36
    36.1600        26
    36.2200        26
    36.2800        40
    36.3400        26
    36.4000        40
    36.4600        50
    36.5200        30
    36.5800        30
    36.6400        42
    36.7000        42
    36.7600        40
    36.8200        36
    36.8800        30
    36.9400        32
    37.0000        50
    37.0600        38
    37.1200        40
    37.1800        32
    37.2400        28
    37.3000        30
    37.3600        48
    37.4200        42
    37.4800        54
    37.5400        40
    37.6000        38
    37.6600        30
    37.7200        38
    37.7800        34
    37.8400        40
    37.9000        32
    37.9600        50
    38.0200        54
    38.0800        44
    38.1400        46
    38.2000        38
    38.2600        28
    38.3200        30
    38.3800        34
    38.4400        38
    38.5000        30
    38.5600        40
    38.6200        30
    38.6800        24
    38.7400        42
    38.8000        48
    38.8600        46
    38.9200        46
    38.9800        50
    39.0400        88
    39.1000       290
    39.1600       232
    39.2200       268
    39.2800       168
    39.3400       120
    39.4000        52
    39.4600        34
    39.5200        36
    39.5800        58
    39.6400        46
    39.7000        28
    39.7600        46
    39.8200        26
    39.8800        30
    39.9400        34
    40.0000        36
    40.0600        28
    40.1200        30
    40.1800        26
    40.2400        32
    40.3000        26
    40.3600        38
    40.4200        26
    40.4800        38
    40.5400        32
    40.6000        50
    40.6600        32
    40.7200        24
    40.7800        44
    40.8400        50
    40.9000        36
    40.9600        72
    41.0200        90
    41.0800        80
    41.1400        84
    41.2000        50
    41.2600        30
    41.3200        38
    41.3800        32
    41.4400        30
    41.5000        38
    41.5600        34
    41.6200        30
    41.6800        22
    41.7400        50
    41.8000        50
    41.8600        42
    41.9200        80
    41.9800       128
    42.0400       382
    42.1000       298
    42.1600       334
    42.2200       240
    42.2800       154
    42.3400        94
    42.4000        88
    42.4600        80
    42.5200        74
    42.5800        46
    42.6400        42
    42.7000        50
    42.7600        44
    42.8200        48
    42.8800        56
    42.9400        38
    43.0000        34
    43.0600        32
    43.1200        40
    43.1800        28
    43.2400        16
    43.3000        28
    43.3600        38
    43.4200        36
    43.4800        40
    43.5400        30
    43.6000        40
    43.6600        40
    43.7200        64
    43.7800        68
    43.8400        70
    43.9000        48
    43.9600        36
    44.0200        28
    44.0800        34
    44.1400        34
    44.2000        28
    44.2600        32
    44.3200        36
    44.3800        34
    44.4400        38
    44.5000        38
    44.5600        34
    44.6200        38
    44.6800        38
    44.7400        38
    44.8000        88
    44.8600        76
    44.9200       140
    44.9800        88
    45.0400        92
    45.1000        98
    45.1600       114
    45.2200        68
    45.2800        70
    45.3400        52
    45.4000        40
    45.4600        38
    45.5200        46
    45.5800        40
    45.6400        32
    45.7000        40
    45.7600        40
    45.8200        44
    45.8800        54
    45.9400        48
    46.0000        50
    46.0600        26
    46.1200        36
    46.1800        26
    46.2400        26
    46.3000        28
    46.3600        42
    46.4200        32
    46.4800        28
    46.5400        16
    46.6000        44
    46.6600        26
    46.7200        30
    46.7800        34
    46.8400        46
    46.9000        30
    46.9600        44
    47.0200        34
    47.0800        54
    47.1400        56
    47.2000        60
    47.2600       132
    47.3200       188
    47.3800       258
    47.4400       238
    47.5000       928
    47.5600       800
    47.6200       528
    47.6800       558
    47.7400       222
    47.8000       134
    47.8600       136
    47.9200       144
    47.9800       106
    48.0400        76
    48.1000        68
    48.1600        50
    48.2200        44
    48.2800        38
    48.3400        46
    48.4000        26
    48.4600        30
    48.5200        40
    48.5800        34
    48.6400        44
    48.7000        30
    48.7600        24
    48.8200        34
    48.8800        28
    48.9400        42
    49.0000        38
    49.0600        44
    49.1200        38
    49.1800        38
    49.2400        32
    49.3000        36
    49.3600        28
    49.4200        32
    49.4800        42
    49.5400        38
    49.6000        38
    49.6600        26
    49.7200        48
    49.7800        66
    49.8400        64
    49.9000        72
    49.9600        54
    50.0200        66
    50.0800        98
    50.1400       134
    50.2000       104
    50.2600       106
    50.3200        64
    50.3800        76
    50.4400        52
    50.5000        40
    50.5600        36
    50.6200        38
    50.6800        38
    50.7400        34
    50.8000        36
    50.8600        34
    50.9200        36
    50.9800        36
    51.0400        28
    51.1000        38
    51.1600        36
    51.2200        34
    51.2800        36
    51.3400        42
    51.4000        52
    51.4600        36
    51.5200        42
    51.5800        32
    51.6400        32
    51.7000        22
    51.7600        36
    51.8200        32
    51.8800        28
    51.9400        40
    52.0000        32
    52.0600        58
    52.1200        52
    52.1800        46
    52.2400        92
    52.3000       106
    52.3600       126
    52.4200       110
    52.4800        78
    52.5400        60
    52.6000        46
    52.6600        46
    52.7200        44
    52.7800        36
    52.8400        32
    52.9000        42
    52.9600        30
    53.0200        34
    53.0800        30
    53.1400        60
    53.2000        42
    53.2600        48
    53.3200        46
    53.3800        44
    53.4400        40
    53.5000        26
    53.5600        48
    53.6200        74
    53.6800       162
    53.7400       166
    53.8000       142
    53.8600        94
    53.9200        84
    53.9800        52
    54.0400        36
    54.1000        50
    54.1600        34
    54.2200        58
    54.2800        44
    54.3400        66
    54.4000        54
    54.4600        46
    54.5200        44
    54.5800        44
    54.6400        54
    54.7000        52
    54.7600        32
    54.8200        62
    54.8800        64
    54.9400        50
    55.0000        60
    55.0600        38
    55.1200        34
    55.1800        38
    55.2400        48
    55.3000        34
    55.3600        40
    55.4200        34
    55.4800        22
    55.5400        26
    55.6000        30
    55.6600        32
    55.7200        24
    55.7800        32
    55.8400        28
    55.9000        18
    55.9600        34
    56.0200        26
    56.0800        26
    56.1400        28
    56.2000        24
    56.2600        32
    56.3200        28
    56.3800        30
    56.4400        34
    56.5000        22
    56.5600        26
    56.6200        28
    56.6800        36
    56.7400        36
    56.8000        54
    56.8600       110
    56.9200        96
    56.9800        54
    57.0400        62
    57.1000        52
    57.1600        42
    57.2200        38
    57.2800        72
    57.3400        58
    57.4000        42
    57.4600        54
    57.5200        42
    57.5800        30
    57.6400        32
    57.7000        34
    57.7600        44
    57.8200        44
    57.8800        30
    57.9400        28
    58.0000        24
    58.0600        40
    58.1200        36
    58.1800        36
    58.2400        98
    58.3000        46
    58.3600        46
    58.4200        54
    58.4800        36
    58.5400        38
    58.6000        34
    58.6600        44
    58.7200        46
    58.7800        50
    58.8400        42
    58.9000        44
    58.9600        34
    59.0200        52
    59.0800        68
    59.1400       206
    59.2000       186
    59.2600        98
    59.3200       170
    59.3800       146
    59.4400        90
    59.5000        68
    59.5600        78
    59.6200        48
    59.6800        44
    59.7400        24
    59.8000        32
    59.8600        42
    59.9200        28
    59.9800        26
    60.0400        26
    60.1000        30
    60.1600        20
    60.2200        32
    60.2800        36
    60.3400        28
    60.4000        44
    60.4600        32
    60.5200        28
    60.5800        54
    60.6400        42
    60.7000        32
    60.7600        26
    60.8200        36
    60.8800        32
    60.9400        36
    61.0000        36
    61.0600        44
    61.1200        46
    61.1800        64
    61.2400        86
    61.3000       338
    61.3600       168
    61.4200        92
    61.4800       186
    61.5400        66
    61.6000        46
    61.6600        26
    61.7200        28
    61.7800        36
    61.8400        28
    61.9000        34
    61.9600        26
    62.0200        28
    62.0800        26
    62.1400        36
    62.2000        24
    62.2600        32
    62.3200        20
    62.3800        34
    62.4400        28
    62.5000        38
    62.5600        32
    62.6200        30
    62.6800        52
    62.7400        82
    62.8000        50
    62.8600        50
    62.9200        38
    62.9800        36
    63.0400        32
    63.1000        34
    63.1600        28
    63.2200        54
    63.2800        68
    63.3400        84
    63.4000        52
    63.4600        66
    63.5200        92
    63.5800       124
    63.6400       136
    63.7000        88
    63.7600        70
    63.8200        88
    63.8800        56
    63.9400        40
    64.0000        46
    64.0600        28
    64.1200        38
    64.1800        24
    64.2400        24
    64.3000        28
    64.3600        32
    64.4200        42
    64.4800        28
    64.5400        22
    64.6000        34
    64.6600        32
    64.7200        32
    64.7800        32
    64.8400        30
    64.9000        24
    64.9600        32
    65.0000        34