File: sl1/usgs/library06/DESCRIPT/new_xrd_results_to_be_added/Rhonda_Driscoll_xrd_runs/GDS40-Scapolite-grp.txt
/////////////////////////////////////////////////////////////////////////////////
/// Profile Data Ascii Dump (XRD)                                             ///
/////////////////////////////////////////////////////////////////////////////////

  Group     : Swayze
  Data      : GDS40
  File Name : GDS40.RAW

# Profile Datafile
          comment             = Scapolite grp
          date & time         = 08-04-29 08:14:53

# Measurement Condition
    X-ray tube
          target              = Cu
          voltage             = 40.0 (kV)
          current             = 30.0 (mA)
    Slits
          divergence slit     = 2.00000 (deg)
          scatter slit        = 2.00000 (deg)
          receiving slit      = 0.15000 (mm)
    Scanning
          drive axis          = Theta-2Theta
          scan range          =    4.000 -   65.000
          scan mode           = Continuous Scan
          scan speed          =   2.0000 (deg/min)
          sampling pitch      =   0.0200 (deg)
          preset time         =   0.60 (sec)

# Data      [ Total No. = 3051 ]
  <2Theta>   <   I   >
     4.0000       206
     4.0600       176
     4.1200       188
     4.1800       178
     4.2400       158
     4.3000       154
     4.3600       182
     4.4200       168
     4.4800       184
     4.5400       168
     4.6000       196
     4.6600       174
     4.7200       168
     4.7800       168
     4.8400       164
     4.9000       184
     4.9600       176
     5.0200       166
     5.0800       162
     5.1400       164
     5.2000       152
     5.2600       152
     5.3200       150
     5.3800       160
     5.4400       160
     5.5000       158
     5.5600       156
     5.6200       148
     5.6800       172
     5.7400       172
     5.8000       178
     5.8600       154
     5.9200       188
     5.9800       184
     6.0400       168
     6.1000       146
     6.1600       138
     6.2200       156
     6.2800       142
     6.3400       138
     6.4000       144
     6.4600       164
     6.5200       136
     6.5800       148
     6.6400       144
     6.7000       102
     6.7600       126
     6.8200       116
     6.8800       126
     6.9400       112
     7.0000       130
     7.0600       118
     7.1200       122
     7.1800       134
     7.2400       118
     7.3000       124
     7.3600       108
     7.4200       114
     7.4800       118
     7.5400       114
     7.6000       118
     7.6600       122
     7.7200       104
     7.7800       120
     7.8400       128
     7.9000       108
     7.9600       100
     8.0200       120
     8.0800       126
     8.1400       108
     8.2000       130
     8.2600       104
     8.3200       126
     8.3800       128
     8.4400       126
     8.5000       114
     8.5600       118
     8.6200       134
     8.6800       136
     8.7400       114
     8.8000       138
     8.8600       118
     8.9200       122
     8.9800       120
     9.0400       112
     9.1000       126
     9.1600       120
     9.2200       116
     9.2800       118
     9.3400       102
     9.4000       100
     9.4600       112
     9.5200       120
     9.5800       110
     9.6400       102
     9.7000       118
     9.7600       114
     9.8200       114
     9.8800       122
     9.9400       122
    10.0000       132
    10.0600       100
    10.1200       128
    10.1800       124
    10.2400       124
    10.3000       108
    10.3600       124
    10.4200       102
    10.4800       118
    10.5400       112
    10.6000        86
    10.6600        94
    10.7200       100
    10.7800       102
    10.8400        98
    10.9000        92
    10.9600        96
    11.0200        84
    11.0800       104
    11.1400        90
    11.2000        98
    11.2600        84
    11.3200        78
    11.3800        94
    11.4400        72
    11.5000        76
    11.5600        80
    11.6200        86
    11.6800        92
    11.7400        84
    11.8000        92
    11.8600        80
    11.9200        90
    11.9800        78
    12.0400        84
    12.1000        90
    12.1600        88
    12.2200        74
    12.2800        76
    12.3400        70
    12.4000        72
    12.4600        94
    12.5200        92
    12.5800        88
    12.6400        64
    12.7000        86
    12.7600        86
    12.8200        86
    12.8800        90
    12.9400        68
    13.0000        68
    13.0600        66
    13.1200        86
    13.1800        66
    13.2400        76
    13.3000        74
    13.3600        86
    13.4200        68
    13.4800        82
    13.5400        82
    13.6000        86
    13.6600        98
    13.7200        88
    13.7800       102
    13.8400        98
    13.9000        88
    13.9600        78
    14.0200        64
    14.0800        72
    14.1400        70
    14.2000        78
    14.2600        78
    14.3200        82
    14.3800        82
    14.4400       102
    14.5000       138
    14.5600       184
    14.6200       206
    14.6800        92
    14.7400        62
    14.8000        64
    14.8600        56
    14.9200        74
    14.9800        60
    15.0400        64
    15.1000        70
    15.1600        52
    15.2200        54
    15.2800        70
    15.3400        54
    15.4000        68
    15.4600        56
    15.5200        56
    15.5800        54
    15.6400        50
    15.7000        44
    15.7600        58
    15.8200        50
    15.8800        56
    15.9400        68
    16.0000        40
    16.0600        58
    16.1200        62
    16.1800        58
    16.2400        56
    16.3000        44
    16.3600        46
    16.4200        66
    16.4800        54
    16.5400        46
    16.6000        58
    16.6600        58
    16.7200        44
    16.7800        58
    16.8400        46
    16.9000        56
    16.9600        50
    17.0200        50
    17.0800        46
    17.1400        40
    17.2000        46
    17.2600        40
    17.3200        68
    17.3800        58
    17.4400        62
    17.5000        56
    17.5600        52
    17.6200        38
    17.6800        58
    17.7400        46
    17.8000        76
    17.8600        52
    17.9200        58
    17.9800        40
    18.0400        52
    18.1000        40
    18.1600        62
    18.2200        50
    18.2800        58
    18.3400        66
    18.4000        56
    18.4600        46
    18.5200        44
    18.5800        66
    18.6400        58
    18.7000        66
    18.7600        56
    18.8200        62
    18.8800        72
    18.9400        46
    19.0000        64
    19.0600        46
    19.1200        60
    19.1800        58
    19.2400        50
    19.3000        48
    19.3600        46
    19.4200        38
    19.4800        44
    19.5400        44
    19.6000        50
    19.6600        48
    19.7200        40
    19.7800        58
    19.8400        48
    19.9000        62
    19.9600        62
    20.0200        86
    20.0800       104
    20.1400        78
    20.2000        64
    20.2600        46
    20.3200        54
    20.3800        58
    20.4400        70
    20.5000        48
    20.5600        76
    20.6200        84
    20.6800        82
    20.7400       100
    20.8000        66
    20.8600        48
    20.9200        52
    20.9800        56
    21.0400        54
    21.1000        50
    21.1600        46
    21.2200        54
    21.2800        42
    21.3400        46
    21.4000        44
    21.4600        36
    21.5200        54
    21.5800        46
    21.6400        50
    21.7000        44
    21.7600        56
    21.8200        38
    21.8800        40
    21.9400        44
    22.0000        42
    22.0600        42
    22.1200        46
    22.1800        50
    22.2400        48
    22.3000        44
    22.3600        42
    22.4200        42
    22.4800        38
    22.5400        48
    22.6000        44
    22.6600        52
    22.7200        58
    22.7800        48
    22.8400        56
    22.9000        74
    22.9600       106
    23.0200       180
    23.0800       316
    23.1400       366
    23.2000       416
    23.2600       308
    23.3200       140
    23.3800        80
    23.4400        78
    23.5000        64
    23.5600        52
    23.6200        44
    23.6800        50
    23.7400        60
    23.8000        50
    23.8600        54
    23.9200        46
    23.9800        46
    24.0400        42
    24.1000        44
    24.1600        50
    24.2200        48
    24.2800        46
    24.3400        46
    24.4000        48
    24.4600        42
    24.5200        42
    24.5800        70
    24.6400        36
    24.7000        68
    24.7600       102
    24.8200       134
    24.8800       194
    24.9400       220
    25.0000       162
    25.0600       104
    25.1200        74
    25.1800        54
    25.2400        82
    25.3000        88
    25.3600       124
    25.4200       174
    25.4800       310
    25.5400       646
    25.6000       952
    25.6600      1328
    25.7200      1450
    25.7800       970
    25.8400       434
    25.9000        98
    25.9600        60
    26.0200        54
    26.0800        48
    26.1400        66
    26.2000        60
    26.2600        50
    26.3200        32
    26.3800        42
    26.4400        46
    26.5000        34
    26.5600        36
    26.6200        44
    26.6800        38
    26.7400        46
    26.8000        36
    26.8600        42
    26.9200        30
    26.9800        42
    27.0400        32
    27.1000        40
    27.1600        40
    27.2200        38
    27.2800        28
    27.3400        38
    27.4000        36
    27.4600        34
    27.5200        32
    27.5800        32
    27.6400        40
    27.7000        46
    27.7600        46
    27.8200        32
    27.8800        34
    27.9400        24
    28.0000        32
    28.0600        40
    28.1200        46
    28.1800        42
    28.2400        38
    28.3000        42
    28.3600        46
    28.4200        46
    28.4800        50
    28.5400        50
    28.6000        66
    28.6600        76
    28.7200       100
    28.7800       130
    28.8400       204
    28.9000       420
    28.9600       710
    29.0200       894
    29.0800       690
    29.1400       354
    29.2000       184
    29.2600       218
    29.3200       354
    29.3800       556
    29.4400      1024
    29.5000       650
    29.5600       212
    29.6200        86
    29.6800        64
    29.7400        40
    29.8000        60
    29.8600        28
    29.9200        38
    29.9800        34
    30.0400        26
    30.1000        34
    30.1600        42
    30.2200        28
    30.2800        44
    30.3400        26
    30.4000        48
    30.4600        28
    30.5200        36
    30.5800        34
    30.6400        38
    30.7000        40
    30.7600        22
    30.8200        32
    30.8800        24
    30.9400        30
    31.0000        36
    31.0600        38
    31.1200        54
    31.1800        72
    31.2400       116
    31.3000        88
    31.3600       122
    31.4200       110
    31.4800        96
    31.5400        76
    31.6000        54
    31.6600        32
    31.7200        32
    31.7800        26
    31.8400        34
    31.9000        38
    31.9600        34
    32.0200        38
    32.0800        28
    32.1400        34
    32.2000        38
    32.2600        38
    32.3200        54
    32.3800        40
    32.4400        60
    32.5000        80
    32.5600       168
    32.6200       304
    32.6800       362
    32.7400       230
    32.8000       138
    32.8600        72
    32.9200       106
    32.9800       196
    33.0400       282
    33.1000       338
    33.1600       504
    33.2200       500
    33.2800       322
    33.3400       174
    33.4000        58
    33.4600        58
    33.5200        32
    33.5800        46
    33.6400        36
    33.7000        38
    33.7600        30
    33.8200        36
    33.8800        24
    33.9400        32
    34.0000        26
    34.0600        24
    34.1200        42
    34.1800        38
    34.2400        26
    34.3000        30
    34.3600        32
    34.4200        26
    34.4800        38
    34.5400        26
    34.6000        24
    34.6600        24
    34.7200        28
    34.7800        38
    34.8400        34
    34.9000        30
    34.9600        28
    35.0200        34
    35.0800        34
    35.1400        34
    35.2000        30
    35.2600        26
    35.3200        40
    35.3800        18
    35.4400        24
    35.5000        24
    35.5600        40
    35.6200        28
    35.6800        48
    35.7400        30
    35.8000        26
    35.8600        28
    35.9200        36
    35.9800        32
    36.0400        24
    36.1000        46
    36.1600        28
    36.2200        30
    36.2800        28
    36.3400        32
    36.4000        18
    36.4600        24
    36.5200        28
    36.5800        26
    36.6400        24
    36.7000        28
    36.7600        30
    36.8200        28
    36.8800        36
    36.9400        42
    37.0000        30
    37.0600        34
    37.1200        24
    37.1800        34
    37.2400        30
    37.3000        30
    37.3600        34
    37.4200        28
    37.4800        34
    37.5400        32
    37.6000        28
    37.6600        36
    37.7200        58
    37.7800        78
    37.8400        76
    37.9000        62
    37.9600        40
    38.0200        40
    38.0800        30
    38.1400        32
    38.2000        36
    38.2600        26
    38.3200        34
    38.3800        30
    38.4400        14
    38.5000        44
    38.5600        32
    38.6200        34
    38.6800        38
    38.7400        58
    38.8000        66
    38.8600        90
    38.9200       186
    38.9800       214
    39.0400       188
    39.1000       124
    39.1600        72
    39.2200        48
    39.2800        56
    39.3400        50
    39.4000        64
    39.4600        78
    39.5200        80
    39.5800        52
    39.6400        44
    39.7000        32
    39.7600        32
    39.8200        36
    39.8800        30
    39.9400        36
    40.0000        38
    40.0600        34
    40.1200        28
    40.1800        34
    40.2400        30
    40.3000        40
    40.3600        38
    40.4200        32
    40.4800        32
    40.5400        34
    40.6000        28
    40.6600        32
    40.7200        24
    40.7800        66
    40.8400        86
    40.9000        86
    40.9600        70
    41.0200        58
    41.0800        44
    41.1400        34
    41.2000        30
    41.2600        28
    41.3200        40
    41.3800        42
    41.4400        24
    41.5000        34
    41.5600        42
    41.6200        34
    41.6800        52
    41.7400        68
    41.8000       110
    41.8600       100
    41.9200       152
    41.9800        94
    42.0400       296
    42.1000       296
    42.1600       314
    42.2200       212
    42.2800       106
    42.3400        72
    42.4000        34
    42.4600        24
    42.5200        28
    42.5800        42
    42.6400        30
    42.7000        28
    42.7600        38
    42.8200        34
    42.8800        32
    42.9400        24
    43.0000        22
    43.0600        24
    43.1200        42
    43.1800        30
    43.2400        32
    43.3000        38
    43.3600        58
    43.4200       156
    43.4800       112
    43.5400       158
    43.6000        78
    43.6600        54
    43.7200        40
    43.7800        30
    43.8400        28
    43.9000        20
    43.9600        24
    44.0200        30
    44.0800        38
    44.1400        30
    44.2000        28
    44.2600        26
    44.3200        28
    44.3800        36
    44.4400        32
    44.5000        50
    44.5600        26
    44.6200        38
    44.6800        70
    44.7400        92
    44.8000       210
    44.8600       178
    44.9200       184
    44.9800       150
    45.0400       102
    45.1000        60
    45.1600        46
    45.2200        30
    45.2800        30
    45.3400        30
    45.4000        38
    45.4600        28
    45.5200        44
    45.5800        44
    45.6400        26
    45.7000        26
    45.7600        28
    45.8200        36
    45.8800        30
    45.9400        28
    46.0000        28
    46.0600        34
    46.1200        32
    46.1800        32
    46.2400        24
    46.3000        44
    46.3600        34
    46.4200        30
    46.4800        26
    46.5400        40
    46.6000        42
    46.6600        30
    46.7200        46
    46.7800        32
    46.8400        44
    46.9000        52
    46.9600        60
    47.0200        96
    47.0800       204
    47.1400       294
    47.2000       202
    47.2600       264
    47.3200       290
    47.3800       338
    47.4400       404
    47.5000       236
    47.5600       200
    47.6200        88
    47.6800        84
    47.7400        78
    47.8000        86
    47.8600       184
    47.9200       312
    47.9800       244
    48.0400       212
    48.1000       132
    48.1600        52
    48.2200        52
    48.2800        30
    48.3400        42
    48.4000        34
    48.4600        28
    48.5200        30
    48.5800        32
    48.6400        44
    48.7000        30
    48.7600        30
    48.8200        28
    48.8800        42
    48.9400        38
    49.0000        46
    49.0600        36
    49.1200        24
    49.1800        40
    49.2400        32
    49.3000        26
    49.3600        42
    49.4200        56
    49.4800        50
    49.5400        80
    49.6000        94
    49.6600       214
    49.7200       122
    49.7800       104
    49.8400        88
    49.9000        74
    49.9600        72
    50.0200        88
    50.0800        60
    50.1400        58
    50.2000        44
    50.2600        34
    50.3200        24
    50.3800        26
    50.4400        32
    50.5000        24
    50.5600        28
    50.6200        32
    50.6800        30
    50.7400        26
    50.8000        24
    50.8600        32
    50.9200        28
    50.9800        28
    51.0400        26
    51.1000        36
    51.1600        30
    51.2200        34
    51.2800        24
    51.3400        42
    51.4000        16
    51.4600        26
    51.5200        32
    51.5800        30
    51.6400        20
    51.7000        32
    51.7600        46
    51.8200        36
    51.8800        46
    51.9400        74
    52.0000        72
    52.0600        74
    52.1200        68
    52.1800        70
    52.2400       136
    52.3000        92
    52.3600        58
    52.4200        72
    52.4800        56
    52.5400        34
    52.6000        30
    52.6600        26
    52.7200        26
    52.7800        38
    52.8400        32
    52.9000        38
    52.9600        32
    53.0200        44
    53.0800        36
    53.1400        32
    53.2000        40
    53.2600        52
    53.3200        80
    53.3800       180
    53.4400       250
    53.5000       188
    53.5600       134
    53.6200        92
    53.6800        58
    53.7400        46
    53.8000        28
    53.8600        34
    53.9200        28
    53.9800        28
    54.0400        24
    54.1000        34
    54.1600        26
    54.2200        26
    54.2800        36
    54.3400        28
    54.4000        32
    54.4600        38
    54.5200        48
    54.5800        94
    54.6400        66
    54.7000        70
    54.7600        68
    54.8200        44
    54.8800        28
    54.9400        30
    55.0000        28
    55.0600        34
    55.1200        38
    55.1800        16
    55.2400        26
    55.3000        28
    55.3600        26
    55.4200        38
    55.4800        24
    55.5400        28
    55.6000        32
    55.6600        20
    55.7200        20
    55.7800        26
    55.8400        22
    55.9000        36
    55.9600        26
    56.0200        30
    56.0800        34
    56.1400        28
    56.2000        36
    56.2600        28
    56.3200        34
    56.3800        38
    56.4400        52
    56.5000        70
    56.5600        68
    56.6200        66
    56.6800        52
    56.7400        46
    56.8000        36
    56.8600        34
    56.9200        38
    56.9800        18
    57.0400        30
    57.1000        36
    57.1600        40
    57.2200       106
    57.2800       130
    57.3400        68
    57.4000        94
    57.4600        64
    57.5200        30
    57.5800        30
    57.6400        24
    57.7000        36
    57.7600        48
    57.8200        34
    57.8800        56
    57.9400        50
    58.0000        60
    58.0600        50
    58.1200        30
    58.1800        40
    58.2400        26
    58.3000        24
    58.3600        28
    58.4200        26
    58.4800        46
    58.5400        30
    58.6000        34
    58.6600        32
    58.7200        28
    58.7800        32
    58.8400        44
    58.9000        76
    58.9600       130
    59.0200       156
    59.0800       128
    59.1400       126
    59.2000        98
    59.2600        44
    59.3200        50
    59.3800        42
    59.4400        40
    59.5000        44
    59.5600        24
    59.6200        36
    59.6800        26
    59.7400        28
    59.8000        18
    59.8600        26
    59.9200        26
    59.9800        28
    60.0400        24
    60.1000        24
    60.1600        48
    60.2200        40
    60.2800        34
    60.3400        40
    60.4000        50
    60.4600        34
    60.5200        24
    60.5800        32
    60.6400        18
    60.7000        32
    60.7600        20
    60.8200        34
    60.8800        44
    60.9400        48
    61.0000        44
    61.0600        54
    61.1200        92
    61.1800        86
    61.2400        76
    61.3000        42
    61.3600        34
    61.4200        40
    61.4800        32
    61.5400        24
    61.6000        26
    61.6600        36
    61.7200        32
    61.7800        16
    61.8400        36
    61.9000        38
    61.9600        30
    62.0200        22
    62.0800        34
    62.1400        24
    62.2000        24
    62.2600        44
    62.3200        30
    62.3800        38
    62.4400        34
    62.5000        44
    62.5600        82
    62.6200        88
    62.6800        70
    62.7400        48
    62.8000        56
    62.8600        38
    62.9200        58
    62.9800        62
    63.0400        54
    63.1000        56
    63.1600        72
    63.2200       112
    63.2800       198
    63.3400       214
    63.4000       184
    63.4600       116
    63.5200       140
    63.5800       102
    63.6400        88
    63.7000       100
    63.7600        52
    63.8200        58
    63.8800        44
    63.9400        28
    64.0000        32
    64.0600        22
    64.1200        32
    64.1800        24
    64.2400        36
    64.3000        24
    64.3600        14
    64.4200        26
    64.4800        30
    64.5400        34
    64.6000        22
    64.6600        20
    64.7200        28
    64.7800        30
    64.8400        30
    64.9000        40
    64.9600        30
    65.0000        28