File: sl1/usgs/library06/DESCRIPT/new_xrd_results_to_be_added/Rhonda_Driscoll_xrd_runs/GDS41re-Nontonite.txt
/////////////////////////////////////////////////////////////////////////////////
/// Profile Data Ascii Dump (XRD)                                             ///
/////////////////////////////////////////////////////////////////////////////////

  Group     : Swayze
  Data      : GDS41-re
  File Name : GDS41-re.RAW

# Profile Datafile
          comment             = Nontronite
          date & time         = 08-04-29 07:12:55

# Measurement Condition
    X-ray tube
          target              = Cu
          voltage             = 40.0 (kV)
          current             = 30.0 (mA)
    Slits
          divergence slit     = 2.00000 (deg)
          scatter slit        = 2.00000 (deg)
          receiving slit      = 0.15000 (mm)
    Scanning
          drive axis          = Theta-2Theta
          scan range          =    4.000 -   65.000
          scan mode           = Continuous Scan
          scan speed          =   2.0000 (deg/min)
          sampling pitch      =   0.0200 (deg)
          preset time         =   0.60 (sec)

# Data      [ Total No. = 3051 ]
  <2Theta>   <   I   >
     4.0000       208
     4.0600       156
     4.1200       206
     4.1800       182
     4.2400       206
     4.3000       178
     4.3600       188
     4.4200       192
     4.4800       146
     4.5400       184
     4.6000       170
     4.6600       162
     4.7200       166
     4.7800       156
     4.8400       166
     4.9000       174
     4.9600       168
     5.0200       168
     5.0800       170
     5.1400       194
     5.2000       166
     5.2600       178
     5.3200       184
     5.3800       176
     5.4400       166
     5.5000       154
     5.5600       196
     5.6200       180
     5.6800       188
     5.7400       154
     5.8000       192
     5.8600       224
     5.9200       202
     5.9800       218
     6.0400       276
     6.1000       264
     6.1600       274
     6.2200       262
     6.2800       240
     6.3400       188
     6.4000       220
     6.4600       192
     6.5200       186
     6.5800       186
     6.6400       142
     6.7000       148
     6.7600       144
     6.8200       134
     6.8800       138
     6.9400       146
     7.0000       134
     7.0600       120
     7.1200       130
     7.1800       114
     7.2400       130
     7.3000       112
     7.3600       118
     7.4200       104
     7.4800       102
     7.5400       120
     7.6000       116
     7.6600       122
     7.7200       130
     7.7800       100
     7.8400       108
     7.9000       118
     7.9600       110
     8.0200        98
     8.0800       126
     8.1400       122
     8.2000       114
     8.2600       114
     8.3200       122
     8.3800       120
     8.4400       140
     8.5000       122
     8.5600       122
     8.6200       132
     8.6800       130
     8.7400       134
     8.8000       124
     8.8600       140
     8.9200       110
     8.9800       100
     9.0400       140
     9.1000       122
     9.1600       118
     9.2200       114
     9.2800       118
     9.3400       108
     9.4000       134
     9.4600       114
     9.5200       104
     9.5800       106
     9.6400       102
     9.7000       118
     9.7600       126
     9.8200        92
     9.8800       120
     9.9400       126
    10.0000       126
    10.0600       114
    10.1200       116
    10.1800       122
    10.2400       128
    10.3000       132
    10.3600       120
    10.4200       118
    10.4800       108
    10.5400        80
    10.6000       118
    10.6600       104
    10.7200       110
    10.7800       106
    10.8400        94
    10.9000       116
    10.9600        80
    11.0200       100
    11.0800       106
    11.1400       112
    11.2000       108
    11.2600        96
    11.3200       112
    11.3800       106
    11.4400       100
    11.5000        92
    11.5600        86
    11.6200        86
    11.6800       108
    11.7400       102
    11.8000        78
    11.8600        70
    11.9200       112
    11.9800       106
    12.0400       120
    12.1000       128
    12.1600       146
    12.2200       198
    12.2800       184
    12.3400       204
    12.4000       278
    12.4600       290
    12.5200       206
    12.5800       190
    12.6400       142
    12.7000       136
    12.7600       104
    12.8200        94
    12.8800        92
    12.9400       100
    13.0000        90
    13.0600        80
    13.1200        72
    13.1800        94
    13.2400        76
    13.3000        62
    13.3600        90
    13.4200        78
    13.4800        74
    13.5400        72
    13.6000        66
    13.6600        58
    13.7200        78
    13.7800        64
    13.8400        64
    13.9000        86
    13.9600        66
    14.0200        70
    14.0800        62
    14.1400        68
    14.2000        50
    14.2600        72
    14.3200        48
    14.3800        76
    14.4400        62
    14.5000        66
    14.5600        54
    14.6200        54
    14.6800        54
    14.7400        78
    14.8000        54
    14.8600        62
    14.9200        62
    14.9800        58
    15.0400        74
    15.1000        72
    15.1600        62
    15.2200        64
    15.2800        78
    15.3400        60
    15.4000        76
    15.4600        68
    15.5200        54
    15.5800        60
    15.6400        58
    15.7000        70
    15.7600        54
    15.8200        66
    15.8800        76
    15.9400        64
    16.0000        58
    16.0600        64
    16.1200        54
    16.1800        42
    16.2400        50
    16.3000        54
    16.3600        52
    16.4200        64
    16.4800        54
    16.5400        56
    16.6000        58
    16.6600        66
    16.7200        52
    16.7800        56
    16.8400        54
    16.9000        76
    16.9600        66
    17.0200        68
    17.0800        66
    17.1400        40
    17.2000        74
    17.2600        60
    17.3200        66
    17.3800        54
    17.4400        50
    17.5000        56
    17.5600        50
    17.6200        64
    17.6800        56
    17.7400        64
    17.8000        56
    17.8600        64
    17.9200        58
    17.9800        60
    18.0400        56
    18.1000        86
    18.1600        52
    18.2200        70
    18.2800        70
    18.3400        62
    18.4000        60
    18.4600        94
    18.5200        82
    18.5800        98
    18.6400       110
    18.7000       128
    18.7600       130
    18.8200       124
    18.8800        84
    18.9400        88
    19.0000        86
    19.0600        84
    19.1200        88
    19.1800        80
    19.2400       102
    19.3000        96
    19.3600        92
    19.4200        70
    19.4800        86
    19.5400        94
    19.6000        80
    19.6600        82
    19.7200        76
    19.7800        74
    19.8400        58
    19.9000        74
    19.9600        62
    20.0200        72
    20.0800        54
    20.1400        74
    20.2000        62
    20.2600        58
    20.3200        80
    20.3800        60
    20.4400        58
    20.5000        54
    20.5600        60
    20.6200        70
    20.6800        54
    20.7400        58
    20.8000        56
    20.8600        70
    20.9200        56
    20.9800        56
    21.0400        64
    21.1000        72
    21.1600        84
    21.2200        66
    21.2800        58
    21.3400        70
    21.4000        46
    21.4600        48
    21.5200        62
    21.5800        56
    21.6400        66
    21.7000        72
    21.7600        60
    21.8200        50
    21.8800        46
    21.9400        60
    22.0000        52
    22.0600        54
    22.1200        56
    22.1800        54
    22.2400        56
    22.3000        64
    22.3600        54
    22.4200        54
    22.4800        62
    22.5400        58
    22.6000        56
    22.6600        54
    22.7200        58
    22.7800        54
    22.8400        68
    22.9000        64
    22.9600        56
    23.0200        52
    23.0800        50
    23.1400        42
    23.2000        46
    23.2600        60
    23.3200        56
    23.3800        52
    23.4400        62
    23.5000        48
    23.5600        52
    23.6200        54
    23.6800        58
    23.7400        48
    23.8000        60
    23.8600        62
    23.9200        66
    23.9800        52
    24.0400        72
    24.1000        68
    24.1600        56
    24.2200        60
    24.2800        66
    24.3400        58
    24.4000        74
    24.4600        72
    24.5200        64
    24.5800        80
    24.6400        76
    24.7000        84
    24.7600       100
    24.8200       118
    24.8800       128
    24.9400       152
    25.0000       224
    25.0600       258
    25.1200       246
    25.1800       218
    25.2400       152
    25.3000       120
    25.3600       102
    25.4200        80
    25.4800        82
    25.5400        70
    25.6000        66
    25.6600        70
    25.7200        64
    25.7800        70
    25.8400        48
    25.9000        50
    25.9600        62
    26.0200        58
    26.0800        66
    26.1400        54
    26.2000        54
    26.2600        60
    26.3200        56
    26.3800        66
    26.4400        62
    26.5000        62
    26.5600        70
    26.6200        58
    26.6800        60
    26.7400        56
    26.8000        56
    26.8600        52
    26.9200        54
    26.9800        50
    27.0400        52
    27.1000        54
    27.1600        56
    27.2200        56
    27.2800        62
    27.3400        40
    27.4000        46
    27.4600        56
    27.5200        38
    27.5800        54
    27.6400        46
    27.7000        44
    27.7600        48
    27.8200        54
    27.8800        46
    27.9400        42
    28.0000        40
    28.0600        40
    28.1200        40
    28.1800        44
    28.2400        36
    28.3000        42
    28.3600        38
    28.4200        44
    28.4800        48
    28.5400        42
    28.6000        42
    28.6600        26
    28.7200        54
    28.7800        40
    28.8400        30
    28.9000        42
    28.9600        48
    29.0200        50
    29.0800        26
    29.1400        26
    29.2000        30
    29.2600        36
    29.3200        30
    29.3800        36
    29.4400        44
    29.5000        44
    29.5600        44
    29.6200        40
    29.6800        42
    29.7400        38
    29.8000        50
    29.8600        36
    29.9200        36
    29.9800        42
    30.0400        42
    30.1000        40
    30.1600        36
    30.2200        34
    30.2800        58
    30.3400        38
    30.4000        38
    30.4600        48
    30.5200        46
    30.5800        50
    30.6400        34
    30.7000        46
    30.7600        50
    30.8200        46
    30.8800        52
    30.9400        48
    31.0000        46
    31.0600        50
    31.1200        50
    31.1800        64
    31.2400        52
    31.3000        66
    31.3600        64
    31.4200        80
    31.4800        90
    31.5400        80
    31.6000        82
    31.6600        72
    31.7200        62
    31.7800        58
    31.8400        50
    31.9000        46
    31.9600        32
    32.0200        40
    32.0800        40
    32.1400        38
    32.2000        48
    32.2600        42
    32.3200        32
    32.3800        46
    32.4400        30
    32.5000        40
    32.5600        30
    32.6200        32
    32.6800        44
    32.7400        40
    32.8000        36
    32.8600        46
    32.9200        36
    32.9800        34
    33.0400        44
    33.1000        52
    33.1600        40
    33.2200        40
    33.2800        34
    33.3400        66
    33.4000        48
    33.4600        32
    33.5200        70
    33.5800        60
    33.6400        66
    33.7000        46
    33.7600        50
    33.8200        42
    33.8800        52
    33.9400        46
    34.0000        30
    34.0600        40
    34.1200        46
    34.1800        42
    34.2400        64
    34.3000        54
    34.3600        72
    34.4200        82
    34.4800       140
    34.5400       146
    34.6000       148
    34.6600        88
    34.7200        92
    34.7800        82
    34.8400        86
    34.9000        74
    34.9600       100
    35.0200        94
    35.0800       110
    35.1400       120
    35.2000       118
    35.2600       100
    35.3200        58
    35.3800        62
    35.4400        58
    35.5000        54
    35.5600        54
    35.6200        38
    35.6800        52
    35.7400        42
    35.8000        50
    35.8600        48
    35.9200        42
    35.9800        38
    36.0400        50
    36.1000        36
    36.1600        42
    36.2200        34
    36.2800        50
    36.3400        44
    36.4000        52
    36.4600        72
    36.5200        74
    36.5800       108
    36.6400       136
    36.7000       102
    36.7600       122
    36.8200        98
    36.8800        76
    36.9400        88
    37.0000        56
    37.0600        80
    37.1200        56
    37.1800        62
    37.2400        48
    37.3000        60
    37.3600        68
    37.4200        66
    37.4800        86
    37.5400        76
    37.6000        96
    37.6600        90
    37.7200        76
    37.7800        84
    37.8400        68
    37.9000        50
    37.9600        46
    38.0200        44
    38.0800        40
    38.1400        46
    38.2000        36
    38.2600        34
    38.3200        28
    38.3800        38
    38.4400        46
    38.5000        36
    38.5600        32
    38.6200        36
    38.6800        38
    38.7400        48
    38.8000        40
    38.8600        44
    38.9200        42
    38.9800        40
    39.0400        34
    39.1000        32
    39.1600        48
    39.2200        42
    39.2800        44
    39.3400        40
    39.4000        62
    39.4600        46
    39.5200        40
    39.5800        56
    39.6400        54
    39.7000        70
    39.7600        78
    39.8200        72
    39.8800        82
    39.9400        72
    40.0000        66
    40.0600        64
    40.1200        76
    40.1800        64
    40.2400        50
    40.3000        40
    40.3600        36
    40.4200        38
    40.4800        50
    40.5400        28
    40.6000        34
    40.6600        38
    40.7200        34
    40.7800        30
    40.8400        32
    40.9000        40
    40.9600        46
    41.0200        22
    41.0800        28
    41.1400        30
    41.2000        40
    41.2600        36
    41.3200        22
    41.3800        40
    41.4400        34
    41.5000        20
    41.5600        30
    41.6200        40
    41.6800        30
    41.7400        34
    41.8000        30
    41.8600        40
    41.9200        40
    41.9800        34
    42.0400        32
    42.1000        38
    42.1600        36
    42.2200        34
    42.2800        36
    42.3400        28
    42.4000        28
    42.4600        38
    42.5200        44
    42.5800        22
    42.6400        28
    42.7000        24
    42.7600        34
    42.8200        36
    42.8800        20
    42.9400        24
    43.0000        20
    43.0600        34
    43.1200        30
    43.1800        24
    43.2400        28
    43.3000        24
    43.3600        30
    43.4200        30
    43.4800        26
    43.5400        26
    43.6000        44
    43.6600        42
    43.7200        26
    43.7800        38
    43.8400        36
    43.9000        44
    43.9600        30
    44.0200        36
    44.0800        44
    44.1400        30
    44.2000        46
    44.2600        42
    44.3200        38
    44.3800        30
    44.4400        44
    44.5000        40
    44.5600        28
    44.6200        58
    44.6800        66
    44.7400        58
    44.8000        74
    44.8600        78
    44.9200        78
    44.9800        86
    45.0400        92
    45.1000       108
    45.1600       104
    45.2200       126
    45.2800        98
    45.3400        92
    45.4000        82
    45.4600        62
    45.5200        52
    45.5800        64
    45.6400        40
    45.7000        46
    45.7600        46
    45.8200        30
    45.8800        44
    45.9400        48
    46.0000        38
    46.0600        40
    46.1200        28
    46.1800        26
    46.2400        28
    46.3000        26
    46.3600        28
    46.4200        30
    46.4800        40
    46.5400        28
    46.6000        36
    46.6600        38
    46.7200        44
    46.7800        42
    46.8400        30
    46.9000        36
    46.9600        36
    47.0200        22
    47.0800        38
    47.1400        32
    47.2000        30
    47.2600        30
    47.3200        36
    47.3800        32
    47.4400        22
    47.5000        40
    47.5600        50
    47.6200        30
    47.6800        40
    47.7400        32
    47.8000        24
    47.8600        32
    47.9200        50
    47.9800        30
    48.0400        42
    48.1000        50
    48.1600        48
    48.2200        54
    48.2800        64
    48.3400        54
    48.4000        70
    48.4600        58
    48.5200        40
    48.5800        40
    48.6400        48
    48.7000        34
    48.7600        44
    48.8200        34
    48.8800        42
    48.9400        26
    49.0000        40
    49.0600        36
    49.1200        26
    49.1800        42
    49.2400        34
    49.3000        50
    49.3600        32
    49.4200        36
    49.4800        50
    49.5400        34
    49.6000        34
    49.6600        32
    49.7200        36
    49.7800        36
    49.8400        42
    49.9000        46
    49.9600        48
    50.0200        52
    50.0800        46
    50.1400        40
    50.2000        34
    50.2600        26
    50.3200        34
    50.3800        36
    50.4400        42
    50.5000        38
    50.5600        42
    50.6200        46
    50.6800        34
    50.7400        38
    50.8000        34
    50.8600        22
    50.9200        34
    50.9800        22
    51.0400        26
    51.1000        38
    51.1600        26
    51.2200        32
    51.2800        26
    51.3400        24
    51.4000        34
    51.4600        42
    51.5200        34
    51.5800        30
    51.6400        28
    51.7000        32
    51.7600        26
    51.8200        34
    51.8800        26
    51.9400        28
    52.0000        34
    52.0600        36
    52.1200        32
    52.1800        32
    52.2400        26
    52.3000        38
    52.3600        46
    52.4200        30
    52.4800        30
    52.5400        52
    52.6000        28
    52.6600        30
    52.7200        40
    52.7800        36
    52.8400        46
    52.9000        48
    52.9600        44
    53.0200        50
    53.0800        40
    53.1400        36
    53.2000        48
    53.2600        42
    53.3200        38
    53.3800        40
    53.4400        36
    53.5000        46
    53.5600        40
    53.6200        46
    53.6800        42
    53.7400        38
    53.8000        34
    53.8600        48
    53.9200        40
    53.9800        28
    54.0400        36
    54.1000        46
    54.1600        34
    54.2200        38
    54.2800        36
    54.3400        36
    54.4000        52
    54.4600        26
    54.5200        34
    54.5800        34
    54.6400        40
    54.7000        36
    54.7600        44
    54.8200        36
    54.8800        54
    54.9400        28
    55.0000        32
    55.0600        42
    55.1200        40
    55.1800        36
    55.2400        54
    55.3000        34
    55.3600        38
    55.4200        48
    55.4800        40
    55.5400        38
    55.6000        42
    55.6600        54
    55.7200        42
    55.7800        34
    55.8400        34
    55.9000        38
    55.9600        40
    56.0200        34
    56.0800        38
    56.1400        34
    56.2000        28
    56.2600        42
    56.3200        34
    56.3800        32
    56.4400        28
    56.5000        32
    56.5600        40
    56.6200        30
    56.6800        44
    56.7400        30
    56.8000        38
    56.8600        44
    56.9200        38
    56.9800        36
    57.0400        34
    57.1000        32
    57.1600        36
    57.2200        28
    57.2800        26
    57.3400        38
    57.4000        34
    57.4600        26
    57.5200        34
    57.5800        28
    57.6400        30
    57.7000        30
    57.7600        32
    57.8200        46
    57.8800        30
    57.9400        14
    58.0000        44
    58.0600        30
    58.1200        24
    58.1800        36
    58.2400        30
    58.3000        48
    58.3600        40
    58.4200        50
    58.4800        46
    58.5400        44
    58.6000        58
    58.6600        46
    58.7200        62
    58.7800        68
    58.8400        74
    58.9000        76
    58.9600        80
    59.0200        60
    59.0800        68
    59.1400        60
    59.2000        64
    59.2600        46
    59.3200        36
    59.3800        58
    59.4400        46
    59.5000        50
    59.5600        52
    59.6200        58
    59.6800        56
    59.7400        86
    59.8000        98
    59.8600       130
    59.9200       130
    59.9800       120
    60.0400       118
    60.1000        72
    60.1600        86
    60.2200        62
    60.2800        54
    60.3400        40
    60.4000        54
    60.4600        38
    60.5200        32
    60.5800        36
    60.6400        54
    60.7000        40
    60.7600        40
    60.8200        44
    60.8800        46
    60.9400        36
    61.0000        44
    61.0600        36
    61.1200        40
    61.1800        60
    61.2400        54
    61.3000        52
    61.3600        56
    61.4200        54
    61.4800        54
    61.5400        58
    61.6000        70
    61.6600        48
    61.7200        50
    61.7800        42
    61.8400        46
    61.9000        34
    61.9600        32
    62.0200        28
    62.0800        32
    62.1400        36
    62.2000        22
    62.2600        34
    62.3200        22
    62.3800        28
    62.4400        34
    62.5000        28
    62.5600        36
    62.6200        34
    62.6800        32
    62.7400        20
    62.8000        22
    62.8600        36
    62.9200        36
    62.9800        30
    63.0400        30
    63.1000        24
    63.1600        28
    63.2200        32
    63.2800        36
    63.3400        36
    63.4000        22
    63.4600        20
    63.5200        30
    63.5800        38
    63.6400        38
    63.7000        26
    63.7600        34
    63.8200        34
    63.8800        32
    63.9400        40
    64.0000        26
    64.0600        26
    64.1200        34
    64.1800        24
    64.2400        28
    64.3000        36
    64.3600        30
    64.4200        32
    64.4800        38
    64.5400        28
    64.6000        28
    64.6600        54
    64.7200        34
    64.7800        34
    64.8400        20
    64.9000        30
    64.9600        34
    65.0000        30