File: sl1/usgs/library06/DESCRIPT/new_xrd_results_to_be_added/Rhonda_Driscoll_xrd_runs/GDS444-Aragonite-CO.txt
/////////////////////////////////////////////////////////////////////////////////
/// Profile Data Ascii Dump (XRD)                                             ///
/////////////////////////////////////////////////////////////////////////////////

  Group     : Swayze
  Data      : GDS444
  File Name : GDS444.RAW

# Profile Datafile
          comment             = Aragonite-CO
          date & time         = 08-04-29 08:45:48

# Measurement Condition
    X-ray tube
          target              = Cu
          voltage             = 40.0 (kV)
          current             = 30.0 (mA)
    Slits
          divergence slit     = 2.00000 (deg)
          scatter slit        = 2.00000 (deg)
          receiving slit      = 0.15000 (mm)
    Scanning
          drive axis          = Theta-2Theta
          scan range          =    4.000 -   65.000
          scan mode           = Continuous Scan
          scan speed          =   2.0000 (deg/min)
          sampling pitch      =   0.0200 (deg)
          preset time         =   0.60 (sec)

# Data      [ Total No. = 3051 ]
  <2Theta>   <   I   >
     4.0000       198
     4.0600       186
     4.1200       186
     4.1800       170
     4.2400       178
     4.3000       170
     4.3600       144
     4.4200       172
     4.4800       138
     4.5400       150
     4.6000       148
     4.6600       164
     4.7200       174
     4.7800       164
     4.8400       156
     4.9000       150
     4.9600       178
     5.0200       150
     5.0800       158
     5.1400       158
     5.2000       152
     5.2600       156
     5.3200       140
     5.3800       158
     5.4400       168
     5.5000       154
     5.5600       152
     5.6200       178
     5.6800       154
     5.7400       154
     5.8000       156
     5.8600       132
     5.9200       138
     5.9800       170
     6.0400       136
     6.1000       152
     6.1600       132
     6.2200       128
     6.2800       138
     6.3400       136
     6.4000       130
     6.4600       142
     6.5200       130
     6.5800       124
     6.6400       110
     6.7000       118
     6.7600       130
     6.8200       102
     6.8800       118
     6.9400       130
     7.0000       110
     7.0600       102
     7.1200       104
     7.1800        96
     7.2400        90
     7.3000       114
     7.3600       108
     7.4200       126
     7.4800       112
     7.5400        94
     7.6000       102
     7.6600       106
     7.7200       104
     7.7800       136
     7.8400       126
     7.9000       104
     7.9600       118
     8.0200       108
     8.0800       108
     8.1400       104
     8.2000       122
     8.2600       102
     8.3200        88
     8.3800        88
     8.4400        82
     8.5000       112
     8.5600       112
     8.6200        92
     8.6800       108
     8.7400       106
     8.8000       108
     8.8600       102
     8.9200       108
     8.9800        94
     9.0400       108
     9.1000       114
     9.1600        90
     9.2200       120
     9.2800       116
     9.3400       110
     9.4000       118
     9.4600        94
     9.5200       106
     9.5800       128
     9.6400       106
     9.7000       104
     9.7600        78
     9.8200       100
     9.8800       102
     9.9400        98
    10.0000       104
    10.0600       102
    10.1200        84
    10.1800        98
    10.2400        88
    10.3000        82
    10.3600        86
    10.4200        92
    10.4800       102
    10.5400       102
    10.6000        84
    10.6600        92
    10.7200        88
    10.7800        86
    10.8400        84
    10.9000        86
    10.9600        84
    11.0200        68
    11.0800        94
    11.1400       104
    11.2000        78
    11.2600        82
    11.3200        82
    11.3800        86
    11.4400        82
    11.5000        74
    11.5600        74
    11.6200        62
    11.6800        94
    11.7400        74
    11.8000        82
    11.8600        68
    11.9200        68
    11.9800        54
    12.0400        76
    12.1000        80
    12.1600        70
    12.2200        78
    12.2800        82
    12.3400        76
    12.4000        56
    12.4600        70
    12.5200        60
    12.5800        70
    12.6400        66
    12.7000        70
    12.7600        76
    12.8200        56
    12.8800        64
    12.9400        66
    13.0000        56
    13.0600        50
    13.1200        72
    13.1800        66
    13.2400        60
    13.3000        68
    13.3600        58
    13.4200        54
    13.4800        54
    13.5400        56
    13.6000        62
    13.6600        64
    13.7200        54
    13.7800        60
    13.8400        58
    13.9000        58
    13.9600        72
    14.0200        62
    14.0800        58
    14.1400        58
    14.2000        64
    14.2600        50
    14.3200        52
    14.3800        58
    14.4400        54
    14.5000        56
    14.5600        62
    14.6200        60
    14.6800        56
    14.7400        62
    14.8000        56
    14.8600        52
    14.9200        50
    14.9800        74
    15.0400        62
    15.1000        64
    15.1600        48
    15.2200        54
    15.2800        52
    15.3400        48
    15.4000        52
    15.4600        46
    15.5200        40
    15.5800        68
    15.6400        38
    15.7000        60
    15.7600        44
    15.8200        56
    15.8800        40
    15.9400        56
    16.0000        36
    16.0600        48
    16.1200        36
    16.1800        48
    16.2400        50
    16.3000        50
    16.3600        44
    16.4200        44
    16.4800        42
    16.5400        46
    16.6000        48
    16.6600        56
    16.7200        62
    16.7800        42
    16.8400        42
    16.9000        56
    16.9600        38
    17.0200        54
    17.0800        44
    17.1400        40
    17.2000        52
    17.2600        44
    17.3200        58
    17.3800        28
    17.4400        46
    17.5000        46
    17.5600        56
    17.6200        46
    17.6800        42
    17.7400        44
    17.8000        54
    17.8600        40
    17.9200        64
    17.9800        44
    18.0400        36
    18.1000        46
    18.1600        40
    18.2200        32
    18.2800        40
    18.3400        42
    18.4000        54
    18.4600        32
    18.5200        40
    18.5800        32
    18.6400        56
    18.7000        34
    18.7600        50
    18.8200        44
    18.8800        40
    18.9400        34
    19.0000        48
    19.0600        46
    19.1200        44
    19.1800        38
    19.2400        52
    19.3000        48
    19.3600        30
    19.4200        40
    19.4800        38
    19.5400        44
    19.6000        44
    19.6600        40
    19.7200        42
    19.7800        46
    19.8400        40
    19.9000        44
    19.9600        28
    20.0200        36
    20.0800        40
    20.1400        40
    20.2000        40
    20.2600        38
    20.3200        44
    20.3800        48
    20.4400        36
    20.5000        26
    20.5600        28
    20.6200        36
    20.6800        44
    20.7400        38
    20.8000        40
    20.8600        40
    20.9200        46
    20.9800        38
    21.0400        32
    21.1000        32
    21.1600        22
    21.2200        28
    21.2800        40
    21.3400        36
    21.4000        42
    21.4600        36
    21.5200        42
    21.5800        32
    21.6400        38
    21.7000        44
    21.7600        38
    21.8200        40
    21.8800        30
    21.9400        32
    22.0000        40
    22.0600        50
    22.1200        42
    22.1800        24
    22.2400        46
    22.3000        38
    22.3600        48
    22.4200        40
    22.4800        54
    22.5400        32
    22.6000        38
    22.6600        50
    22.7200        62
    22.7800        60
    22.8400       102
    22.9000       140
    22.9600       178
    23.0200       178
    23.0800       126
    23.1400        66
    23.2000        34
    23.2600        36
    23.3200        34
    23.3800        38
    23.4400        28
    23.5000        34
    23.5600        28
    23.6200        36
    23.6800        36
    23.7400        32
    23.8000        36
    23.8600        36
    23.9200        26
    23.9800        26
    24.0400        26
    24.1000        42
    24.1600        38
    24.2200        32
    24.2800        26
    24.3400        28
    24.4000        22
    24.4600        30
    24.5200        28
    24.5800        32
    24.6400        36
    24.7000        40
    24.7600        36
    24.8200        32
    24.8800        22
    24.9400        24
    25.0000        30
    25.0600        28
    25.1200        34
    25.1800        32
    25.2400        24
    25.3000        22
    25.3600        32
    25.4200        36
    25.4800        32
    25.5400        30
    25.6000        40
    25.6600        30
    25.7200        40
    25.7800        36
    25.8400        44
    25.9000        32
    25.9600        44
    26.0200        48
    26.0800        80
    26.1400       130
    26.2000        94
    26.2600        52
    26.3200        42
    26.3800        58
    26.4400        68
    26.5000        58
    26.5600        28
    26.6200        32
    26.6800        34
    26.7400        40
    26.8000        44
    26.8600        40
    26.9200        34
    26.9800        46
    27.0400        50
    27.1000        64
    27.1600        54
    27.2200        56
    27.2800        36
    27.3400        50
    27.4000        36
    27.4600        36
    27.5200        38
    27.5800        40
    27.6400        32
    27.7000        46
    27.7600        36
    27.8200        36
    27.8800        36
    27.9400        38
    28.0000        46
    28.0600        62
    28.1200        56
    28.1800        52
    28.2400        58
    28.3000        56
    28.3600        48
    28.4200        54
    28.4800        54
    28.5400        56
    28.6000        70
    28.6600        70
    28.7200        74
    28.7800        64
    28.8400        90
    28.9000       138
    28.9600       190
    29.0200       308
    29.0800       514
    29.1400       918
    29.2000      1868
    29.2600      3812
    29.3200      6084
    29.3800      5480
    29.4400      2944
    29.5000      1164
    29.5600       428
    29.6200       226
    29.6800       134
    29.7400       100
    29.8000        68
    29.8600        74
    29.9200        54
    29.9800        48
    30.0400        52
    30.1000        28
    30.1600        46
    30.2200        28
    30.2800        48
    30.3400        28
    30.4000        38
    30.4600        34
    30.5200        40
    30.5800        30
    30.6400        30
    30.7000        36
    30.7600        42
    30.8200        30
    30.8800        24
    30.9400        36
    31.0000        26
    31.0600        28
    31.1200        42
    31.1800        52
    31.2400        60
    31.3000        94
    31.3600        90
    31.4200        86
    31.4800        44
    31.5400        34
    31.6000        28
    31.6600        40
    31.7200        32
    31.7800        22
    31.8400        34
    31.9000        26
    31.9600        20
    32.0200        32
    32.0800        22
    32.1400        32
    32.2000        26
    32.2600        28
    32.3200        22
    32.3800        16
    32.4400        32
    32.5000        28
    32.5600        30
    32.6200        24
    32.6800        24
    32.7400        36
    32.8000        44
    32.8600        32
    32.9200        44
    32.9800        58
    33.0400        86
    33.1000        80
    33.1600        56
    33.2200        36
    33.2800        30
    33.3400        28
    33.4000        30
    33.4600        26
    33.5200        32
    33.5800        36
    33.6400        22
    33.7000        20
    33.7600        36
    33.8200        30
    33.8800        16
    33.9400        20
    34.0000        18
    34.0600        22
    34.1200        16
    34.1800        24
    34.2400        32
    34.3000        22
    34.3600        28
    34.4200        20
    34.4800        16
    34.5400        22
    34.6000        36
    34.6600        32
    34.7200        18
    34.7800        26
    34.8400        30
    34.9000        24
    34.9600        20
    35.0200        24
    35.0800        24
    35.1400        22
    35.2000        24
    35.2600        22
    35.3200        30
    35.3800        28
    35.4400        32
    35.5000        30
    35.5600        30
    35.6200        50
    35.6800        54
    35.7400        78
    35.8000       152
    35.8600       264
    35.9200       312
    35.9800       304
    36.0400       182
    36.1000        96
    36.1600        66
    36.2200        46
    36.2800        36
    36.3400        34
    36.4000        26
    36.4600        26
    36.5200        28
    36.5800        24
    36.6400        30
    36.7000        20
    36.7600        20
    36.8200        22
    36.8800        16
    36.9400        34
    37.0000        22
    37.0600        30
    37.1200        40
    37.1800        36
    37.2400        38
    37.3000        36
    37.3600        26
    37.4200        24
    37.4800        24
    37.5400        16
    37.6000        26
    37.6600        38
    37.7200        48
    37.7800        68
    37.8400        60
    37.9000        52
    37.9600        42
    38.0200        26
    38.0800        22
    38.1400        26
    38.2000        30
    38.2600        42
    38.3200        50
    38.3800        32
    38.4400        38
    38.5000        52
    38.5600        54
    38.6200        30
    38.6800        44
    38.7400        38
    38.8000        30
    38.8600        30
    38.9200        38
    38.9800        56
    39.0400        58
    39.1000        76
    39.1600        92
    39.2200       186
    39.2800       338
    39.3400       442
    39.4000       374
    39.4600       276
    39.5200       170
    39.5800        74
    39.6400        62
    39.7000        42
    39.7600        26
    39.8200        30
    39.8800        26
    39.9400        42
    40.0000        38
    40.0600        32
    40.1200        22
    40.1800        24
    40.2400        22
    40.3000        20
    40.3600        24
    40.4200        30
    40.4800        30
    40.5400        24
    40.6000        24
    40.6600        28
    40.7200        32
    40.7800        22
    40.8400        22
    40.9000        18
    40.9600        24
    41.0200        32
    41.0800        28
    41.1400        38
    41.2000        42
    41.2600        28
    41.3200        20
    41.3800        18
    41.4400        22
    41.5000        22
    41.5600        30
    41.6200        26
    41.6800        24
    41.7400        28
    41.8000        22
    41.8600        26
    41.9200        20
    41.9800        20
    42.0400        22
    42.1000        16
    42.1600        30
    42.2200        32
    42.2800        26
    42.3400        28
    42.4000        24
    42.4600        20
    42.5200        36
    42.5800        28
    42.6400        26
    42.7000        44
    42.7600        36
    42.8200        60
    42.8800        82
    42.9400       126
    43.0000       260
    43.0600       404
    43.1200       432
    43.1800       374
    43.2400       232
    43.3000       150
    43.3600        96
    43.4200        68
    43.4800        40
    43.5400        38
    43.6000        32
    43.6600        24
    43.7200        28
    43.7800        32
    43.8400        22
    43.9000        26
    43.9600        30
    44.0200        18
    44.0800        22
    44.1400        28
    44.2000        16
    44.2600        28
    44.3200        30
    44.3800        18
    44.4400        30
    44.5000        16
    44.5600        16
    44.6200        28
    44.6800        28
    44.7400        20
    44.8000        24
    44.8600        28
    44.9200        32
    44.9800        20
    45.0400        30
    45.1000        26
    45.1600        24
    45.2200        24
    45.2800        28
    45.3400        32
    45.4000        30
    45.4600        30
    45.5200        26
    45.5800        28
    45.6400        42
    45.7000        48
    45.7600        66
    45.8200        74
    45.8800        68
    45.9400        50
    46.0000        44
    46.0600        32
    46.1200        26
    46.1800        34
    46.2400        22
    46.3000        28
    46.3600        30
    46.4200        28
    46.4800        26
    46.5400        42
    46.6000        32
    46.6600        36
    46.7200        50
    46.7800        42
    46.8400        62
    46.9000        94
    46.9600       128
    47.0200       150
    47.0800       154
    47.1400       174
    47.2000       166
    47.2600       196
    47.3200       350
    47.3800       474
    47.4400       540
    47.5000       484
    47.5600       418
    47.6200       284
    47.6800       164
    47.7400       106
    47.8000        76
    47.8600        58
    47.9200        56
    47.9800        58
    48.0400        54
    48.1000        54
    48.1600        78
    48.2200       140
    48.2800       204
    48.3400       348
    48.4000       506
    48.4600       494
    48.5200       452
    48.5800       344
    48.6400       246
    48.7000       142
    48.7600        72
    48.8200        56
    48.8800        52
    48.9400        42
    49.0000        26
    49.0600        28
    49.1200        26
    49.1800        18
    49.2400        24
    49.3000        30
    49.3600        26
    49.4200        16
    49.4800        26
    49.5400        26
    49.6000        26
    49.6600        24
    49.7200        32
    49.7800        32
    49.8400        28
    49.9000        28
    49.9600        22
    50.0200        36
    50.0800        38
    50.1400        34
    50.2000        46
    50.2600        46
    50.3200        30
    50.3800        28
    50.4400        24
    50.5000        20
    50.5600        32
    50.6200        26
    50.6800        20
    50.7400        24
    50.8000        22
    50.8600        18
    50.9200        22
    50.9800        32
    51.0400        16
    51.1000        16
    51.1600        26
    51.2200        22
    51.2800        12
    51.3400        18
    51.4000        12
    51.4600        14
    51.5200        22
    51.5800        18
    51.6400        28
    51.7000        30
    51.7600        32
    51.8200        20
    51.8800        18
    51.9400        24
    52.0000        16
    52.0600        26
    52.1200        20
    52.1800        22
    52.2400        26
    52.3000        28
    52.3600        36
    52.4200        38
    52.4800        40
    52.5400        42
    52.6000        30
    52.6600        16
    52.7200        24
    52.7800        32
    52.8400        32
    52.9000        36
    52.9600        42
    53.0200        34
    53.0800        26
    53.1400        24
    53.2000        22
    53.2600        22
    53.3200        22
    53.3800        18
    53.4400        16
    53.5000        18
    53.5600        16
    53.6200        22
    53.6800        30
    53.7400        18
    53.8000        14
    53.8600        28
    53.9200        12
    53.9800        18
    54.0400        18
    54.1000        26
    54.1600        24
    54.2200        20
    54.2800        26
    54.3400        20
    54.4000        20
    54.4600        18
    54.5200        26
    54.5800        14
    54.6400        28
    54.7000        22
    54.7600        22
    54.8200        20
    54.8800        16
    54.9400        28
    55.0000        22
    55.0600        20
    55.1200        26
    55.1800        20
    55.2400        16
    55.3000        26
    55.3600        26
    55.4200         8
    55.4800        18
    55.5400        26
    55.6000        18
    55.6600        20
    55.7200        18
    55.7800        20
    55.8400        30
    55.9000        26
    55.9600        24
    56.0200        34
    56.0800        20
    56.1400        22
    56.2000        20
    56.2600        34
    56.3200        42
    56.3800        56
    56.4400        86
    56.5000        86
    56.5600        88
    56.6200        82
    56.6800        54
    56.7400        46
    56.8000        46
    56.8600        42
    56.9200        28
    56.9800        34
    57.0400        34
    57.1000        50
    57.1600        70
    57.2200        88
    57.2800       158
    57.3400       170
    57.4000       146
    57.4600       150
    57.5200       116
    57.5800        82
    57.6400        58
    57.7000        54
    57.7600        40
    57.8200        28
    57.8800        50
    57.9400        44
    58.0000        58
    58.0600        32
    58.1200        50
    58.1800        40
    58.2400        26
    58.3000        36
    58.3600        24
    58.4200        28
    58.4800        28
    58.5400        18
    58.6000        26
    58.6600        22
    58.7200        18
    58.7800        20
    58.8400        32
    58.9000        24
    58.9600        26
    59.0200        18
    59.0800        22
    59.1400        16
    59.2000        34
    59.2600        26
    59.3200        28
    59.3800        22
    59.4400        18
    59.5000        20
    59.5600        22
    59.6200        14
    59.6800        16
    59.7400        14
    59.8000        22
    59.8600        18
    59.9200        24
    59.9800        16
    60.0400        22
    60.1000        18
    60.1600        36
    60.2200        32
    60.2800        22
    60.3400        42
    60.4000        28
    60.4600        64
    60.5200       106
    60.5800       118
    60.6400       124
    60.7000       122
    60.7600       116
    60.8200       116
    60.8800       148
    60.9400       140
    61.0000       136
    61.0600       100
    61.1200        86
    61.1800       104
    61.2400       100
    61.3000        88
    61.3600        96
    61.4200        86
    61.4800        66
    61.5400        52
    61.6000        48
    61.6600        28
    61.7200        30
    61.7800        28
    61.8400        20
    61.9000        32
    61.9600        22
    62.0200        26
    62.0800        22
    62.1400        24
    62.2000        34
    62.2600        10
    62.3200        18
    62.3800        20
    62.4400        22
    62.5000        24
    62.5600        26
    62.6200        20
    62.6800        18
    62.7400        18
    62.8000        32
    62.8600        34
    62.9200        42
    62.9800        60
    63.0400        50
    63.1000        46
    63.1600        44
    63.2200        38
    63.2800        36
    63.3400        26
    63.4000        24
    63.4600        30
    63.5200        14
    63.5800        26
    63.6400        22
    63.7000        14
    63.7600        28
    63.8200        20
    63.8800        32
    63.9400        20
    64.0000        12
    64.0600        24
    64.1200        30
    64.1800        18
    64.2400        32
    64.3000        36
    64.3600        42
    64.4200        40
    64.4800        94
    64.5400       104
    64.6000       128
    64.6600       102
    64.7200       104
    64.7800       102
    64.8400        64
    64.9000        60
    64.9600        36
    65.0000        44