File: sl1/usgs/library06/DESCRIPT/new_xrd_results_to_be_added/Rhonda_Driscoll_xrd_runs/GDS5---Mesolite.txt
/////////////////////////////////////////////////////////////////////////////////
/// Profile Data Ascii Dump (XRD)                                             ///
/////////////////////////////////////////////////////////////////////////////////

  Group     : Swayze
  Data      : GDS5
  File Name : GDS5.RAW

# Profile Datafile
          comment             = Mesolite
          date & time         = 08-03-24 08:19:54

# Measurement Condition
    X-ray tube
          target              = Cu
          voltage             = 40.0 (kV)
          current             = 30.0 (mA)
    Slits
          divergence slit     = 2.00000 (deg)
          scatter slit        = 2.00000 (deg)
          receiving slit      = 0.15000 (mm)
    Scanning
          drive axis          = Theta-2Theta
          scan range          =    4.000 -   65.000
          scan mode           = Continuous Scan
          scan speed          =   2.0000 (deg/min)
          sampling pitch      =   0.0200 (deg)
          preset time         =   0.60 (sec)

# Data      [ Total No. = 3051 ]
  <2Theta>   <   I   >
     4.0000       196
     4.0600       190
     4.1200       170
     4.1800       178
     4.2400       182
     4.3000       168
     4.3600       172
     4.4200       168
     4.4800       178
     4.5400       182
     4.6000       178
     4.6600       150
     4.7200       186
     4.7800       166
     4.8400       154
     4.9000       132
     4.9600       192
     5.0200       144
     5.0800       152
     5.1400       132
     5.2000       140
     5.2600       158
     5.3200       150
     5.3800       168
     5.4400       170
     5.5000       170
     5.5600       126
     5.6200       142
     5.6800       146
     5.7400       156
     5.8000       146
     5.8600       134
     5.9200       164
     5.9800       178
     6.0400       130
     6.1000       150
     6.1600       140
     6.2200       174
     6.2800       142
     6.3400       120
     6.4000       138
     6.4600       148
     6.5200       126
     6.5800       136
     6.6400       128
     6.7000       116
     6.7600       126
     6.8200       134
     6.8800       130
     6.9400       114
     7.0000       128
     7.0600       110
     7.1200       124
     7.1800       116
     7.2400       114
     7.3000        94
     7.3600       120
     7.4200       118
     7.4800       118
     7.5400       118
     7.6000       102
     7.6600       124
     7.7200        94
     7.7800       112
     7.8400       102
     7.9000       106
     7.9600       102
     8.0200       102
     8.0800       122
     8.1400       108
     8.2000       120
     8.2600        94
     8.3200        92
     8.3800       100
     8.4400       114
     8.5000       120
     8.5600       112
     8.6200       110
     8.6800        92
     8.7400        90
     8.8000       118
     8.8600       118
     8.9200       124
     8.9800       100
     9.0400       120
     9.1000       112
     9.1600       120
     9.2200       114
     9.2800        94
     9.3400       112
     9.4000       108
     9.4600       118
     9.5200        96
     9.5800        86
     9.6400        98
     9.7000       106
     9.7600       136
     9.8200       118
     9.8800       136
     9.9400       102
    10.0000       108
    10.0600       100
    10.1200       104
    10.1800        94
    10.2400        98
    10.3000       116
    10.3600       100
    10.4200       100
    10.4800        98
    10.5400        80
    10.6000       102
    10.6600        82
    10.7200       106
    10.7800       104
    10.8400        84
    10.9000       138
    10.9600       154
    11.0200       144
    11.0800       178
    11.1400       172
    11.2000       194
    11.2600       162
    11.3200       110
    11.3800       110
    11.4400       102
    11.5000        74
    11.5600        84
    11.6200        94
    11.6800        72
    11.7400        78
    11.8000        68
    11.8600        68
    11.9200        78
    11.9800        80
    12.0400        66
    12.1000        90
    12.1600        80
    12.2200        92
    12.2800        74
    12.3400        76
    12.4000        84
    12.4600        68
    12.5200        84
    12.5800        80
    12.6400        92
    12.7000        72
    12.7600       104
    12.8200       140
    12.8800       114
    12.9400       128
    13.0000       172
    13.0600       192
    13.1200       206
    13.1800       314
    13.2400       450
    13.3000      2294
    13.3600      3050
    13.4200      1098
    13.4800       228
    13.5400       140
    13.6000        94
    13.6600        82
    13.7200        78
    13.7800        78
    13.8400        70
    13.9000        70
    13.9600        70
    14.0200        98
    14.0800        82
    14.1400        70
    14.2000        64
    14.2600        92
    14.3200        76
    14.3800       100
    14.4400        74
    14.5000        68
    14.5600        56
    14.6200        72
    14.6800        82
    14.7400        78
    14.8000        78
    14.8600       106
    14.9200       140
    14.9800       180
    15.0400       200
    15.1000       110
    15.1600        80
    15.2200        66
    15.2800        62
    15.3400        54
    15.4000        62
    15.4600        54
    15.5200        54
    15.5800        50
    15.6400        78
    15.7000        62
    15.7600        54
    15.8200        48
    15.8800        62
    15.9400        58
    16.0000        64
    16.0600        56
    16.1200        60
    16.1800        66
    16.2400        76
    16.3000        90
    16.3600        56
    16.4200        46
    16.4800        62
    16.5400        52
    16.6000        48
    16.6600        54
    16.7200        50
    16.7800        42
    16.8400        60
    16.9000        54
    16.9600        62
    17.0200        46
    17.0800        54
    17.1400        48
    17.2000        38
    17.2600        48
    17.3200        44
    17.3800        44
    17.4400        62
    17.5000        52
    17.5600        38
    17.6200        58
    17.6800        56
    17.7400        56
    17.8000        56
    17.8600        54
    17.9200        54
    17.9800        68
    18.0400        60
    18.1000        48
    18.1600        66
    18.2200        64
    18.2800        72
    18.3400        58
    18.4000        90
    18.4600        88
    18.5200       164
    18.5800       294
    18.6400       370
    18.7000       408
    18.7600       304
    18.8200       146
    18.8800        90
    18.9400       106
    19.0000       126
    19.0600       182
    19.1200       272
    19.1800       296
    19.2400       354
    19.3000       180
    19.3600       134
    19.4200       180
    19.4800       422
    19.5400       240
    19.6000        78
    19.6600        88
    19.7200        90
    19.7800        76
    19.8400        80
    19.9000        82
    19.9600        76
    20.0200       138
    20.0800       218
    20.1400       192
    20.2000       142
    20.2600       176
    20.3200       142
    20.3800        76
    20.4400        72
    20.5000        56
    20.5600        56
    20.6200        50
    20.6800        66
    20.7400        84
    20.8000        72
    20.8600       100
    20.9200       124
    20.9800       330
    21.0400       526
    21.1000       450
    21.1600      3518
    21.2200      7402
    21.2800       166
    21.3400       212
    21.4000       216
    21.4600       110
    21.5200        76
    21.5800        58
    21.6400        64
    21.7000        42
    21.7600        56
    21.8200        60
    21.8800        72
    21.9400        64
    22.0000        60
    22.0600        80
    22.1200       124
    22.1800       152
    22.2400       186
    22.3000       256
    22.3600       890
    22.4200      1892
    22.4800      1238
    22.5400       358
    22.6000       132
    22.6600       126
    22.7200       138
    22.7800       126
    22.8400       106
    22.9000       174
    22.9600       150
    23.0200        80
    23.0800        44
    23.1400        56
    23.2000        50
    23.2600        38
    23.3200        40
    23.3800        38
    23.4400        48
    23.5000        32
    23.5600        40
    23.6200        42
    23.6800        44
    23.7400        44
    23.8000        44
    23.8600        58
    23.9200        60
    23.9800        58
    24.0400        52
    24.1000        44
    24.1600        42
    24.2200        44
    24.2800        48
    24.3400        54
    24.4000        38
    24.4600        46
    24.5200        56
    24.5800        56
    24.6400        80
    24.7000       146
    24.7600       174
    24.8200       150
    24.8800       106
    24.9400        54
    25.0000        36
    25.0600        40
    25.1200        50
    25.1800        36
    25.2400        38
    25.3000        40
    25.3600        32
    25.4200        48
    25.4800        40
    25.5400        32
    25.6000        38
    25.6600        36
    25.7200        36
    25.7800        30
    25.8400        36
    25.9000        36
    25.9600        40
    26.0200        26
    26.0800        34
    26.1400        48
    26.2000        52
    26.2600        56
    26.3200        48
    26.3800        66
    26.4400       108
    26.5000        90
    26.5600        52
    26.6200        48
    26.6800        34
    26.7400        58
    26.8000        64
    26.8600       114
    26.9200       170
    26.9800       206
    27.0400       100
    27.1000        50
    27.1600        40
    27.2200        48
    27.2800        46
    27.3400        52
    27.4000        74
    27.4600        70
    27.5200        82
    27.5800       130
    27.6400        90
    27.7000        66
    27.7600        56
    27.8200        88
    27.8800       108
    27.9400       134
    28.0000       356
    28.0600       444
    28.1200       300
    28.1800       116
    28.2400        68
    28.3000        48
    28.3600        48
    28.4200        48
    28.4800        56
    28.5400        60
    28.6000        48
    28.6600        50
    28.7200        82
    28.7800       122
    28.8400        86
    28.9000        66
    28.9600        52
    29.0200        48
    29.0800        66
    29.1400        66
    29.2000        46
    29.2600        40
    29.3200        54
    29.3800        48
    29.4400        64
    29.5000        56
    29.5600        78
    29.6200        84
    29.6800       134
    29.7400       390
    29.8000       620
    29.8600       778
    29.9200       550
    29.9800       314
    30.0400       128
    30.1000        96
    30.1600       194
    30.2200       166
    30.2800       274
    30.3400       310
    30.4000       290
    30.4600       228
    30.5200       210
    30.5800       144
    30.6400       112
    30.7000       126
    30.7600       270
    30.8200       474
    30.8800       468
    30.9400       286
    31.0000       196
    31.0600       258
    31.1200       306
    31.1800       322
    31.2400       236
    31.3000       162
    31.3600        72
    31.4200        74
    31.4800        58
    31.5400        64
    31.6000        90
    31.6600       104
    31.7200        66
    31.7800        70
    31.8400        44
    31.9000        34
    31.9600        38
    32.0200        38
    32.0800        32
    32.1400        30
    32.2000        34
    32.2600        24
    32.3200        36
    32.3800        34
    32.4400        26
    32.5000        34
    32.5600        42
    32.6200        40
    32.6800        40
    32.7400        60
    32.8000        46
    32.8600        52
    32.9200        44
    32.9800        40
    33.0400        48
    33.1000        36
    33.1600        44
    33.2200        36
    33.2800        46
    33.3400        74
    33.4000        52
    33.4600        48
    33.5200        38
    33.5800        32
    33.6400        36
    33.7000        34
    33.7600        36
    33.8200        28
    33.8800        28
    33.9400        34
    34.0000        30
    34.0600        30
    34.1200        42
    34.1800        32
    34.2400        44
    34.3000        54
    34.3600        72
    34.4200        86
    34.4800        66
    34.5400        56
    34.6000       104
    34.6600       118
    34.7200       124
    34.7800       120
    34.8400        78
    34.9000        56
    34.9600        32
    35.0200        36
    35.0800        32
    35.1400        38
    35.2000        34
    35.2600        28
    35.3200        30
    35.3800        24
    35.4400        34
    35.5000        42
    35.5600        62
    35.6200        52
    35.6800       108
    35.7400       114
    35.8000       174
    35.8600       128
    35.9200       114
    35.9800       144
    36.0400       158
    36.1000       158
    36.1600       180
    36.2200       154
    36.2800       112
    36.3400        96
    36.4000        56
    36.4600        50
    36.5200        60
    36.5800       106
    36.6400       138
    36.7000       128
    36.7600       120
    36.8200       188
    36.8800       200
    36.9400       202
    37.0000       182
    37.0600       134
    37.1200        86
    37.1800        68
    37.2400        50
    37.3000        32
    37.3600        28
    37.4200        24
    37.4800        42
    37.5400        32
    37.6000        22
    37.6600        42
    37.7200        24
    37.7800        28
    37.8400        30
    37.9000        64
    37.9600        76
    38.0200        68
    38.0800        66
    38.1400        40
    38.2000        32
    38.2600        34
    38.3200        42
    38.3800        48
    38.4400        34
    38.5000        34
    38.5600        38
    38.6200        54
    38.6800        56
    38.7400        78
    38.8000       104
    38.8600       104
    38.9200        98
    38.9800        92
    39.0400        58
    39.1000        70
    39.1600        54
    39.2200        62
    39.2800        54
    39.3400        50
    39.4000        42
    39.4600        42
    39.5200        66
    39.5800        58
    39.6400        40
    39.7000        58
    39.7600        46
    39.8200        42
    39.8800        34
    39.9400        32
    40.0000        44
    40.0600        64
    40.1200        58
    40.1800        72
    40.2400        74
    40.3000        70
    40.3600        58
    40.4200        52
    40.4800        28
    40.5400        46
    40.6000        46
    40.6600        74
    40.7200        86
    40.7800       168
    40.8400       194
    40.9000       360
    40.9600       866
    41.0200       542
    41.0800       480
    41.1400       228
    41.2000       100
    41.2600        80
    41.3200        74
    41.3800        62
    41.4400        50
    41.5000        50
    41.5600        58
    41.6200        50
    41.6800        42
    41.7400        70
    41.8000        44
    41.8600        38
    41.9200        38
    41.9800        36
    42.0400        22
    42.1000        30
    42.1600        38
    42.2200        64
    42.2800        74
    42.3400        58
    42.4000        70
    42.4600        58
    42.5200        54
    42.5800        54
    42.6400        78
    42.7000        86
    42.7600       112
    42.8200        98
    42.8800        58
    42.9400        68
    43.0000        48
    43.0600        52
    43.1200        48
    43.1800        50
    43.2400        48
    43.3000        76
    43.3600        70
    43.4200        72
    43.4800        62
    43.5400        60
    43.6000        88
    43.6600        68
    43.7200        70
    43.7800        48
    43.8400        58
    43.9000        44
    43.9600        46
    44.0200        64
    44.0800        54
    44.1400        54
    44.2000        54
    44.2600        32
    44.3200        28
    44.3800        30
    44.4400        34
    44.5000        28
    44.5600        36
    44.6200        54
    44.6800        56
    44.7400        50
    44.8000        40
    44.8600        40
    44.9200        56
    44.9800        62
    45.0400        70
    45.1000        56
    45.1600        74
    45.2200       102
    45.2800        78
    45.3400        66
    45.4000        42
    45.4600        42
    45.5200        54
    45.5800        36
    45.6400        46
    45.7000        40
    45.7600        30
    45.8200        46
    45.8800        30
    45.9400        38
    46.0000        38
    46.0600        32
    46.1200        34
    46.1800        48
    46.2400        40
    46.3000        50
    46.3600        48
    46.4200        50
    46.4800        54
    46.5400        78
    46.6000        84
    46.6600        60
    46.7200        66
    46.7800        48
    46.8400        26
    46.9000        46
    46.9600        34
    47.0200        36
    47.0800        22
    47.1400        28
    47.2000        16
    47.2600        34
    47.3200        30
    47.3800        26
    47.4400        20
    47.5000        44
    47.5600        40
    47.6200        24
    47.6800        36
    47.7400        38
    47.8000        34
    47.8600        38
    47.9200        22
    47.9800        30
    48.0400        28
    48.1000        18
    48.1600        42
    48.2200        30
    48.2800        46
    48.3400        30
    48.4000        36
    48.4600        44
    48.5200        42
    48.5800        52
    48.6400        62
    48.7000        58
    48.7600        52
    48.8200        60
    48.8800        62
    48.9400        46
    49.0000        82
    49.0600       118
    49.1200       118
    49.1800        98
    49.2400        76
    49.3000        62
    49.3600        36
    49.4200        34
    49.4800        34
    49.5400        26
    49.6000        34
    49.6600        30
    49.7200        40
    49.7800        36
    49.8400        38
    49.9000        36
    49.9600        26
    50.0200        36
    50.0800        44
    50.1400        68
    50.2000        66
    50.2600       164
    50.3200       140
    50.3800       172
    50.4400       122
    50.5000        84
    50.5600       106
    50.6200        76
    50.6800        62
    50.7400        48
    50.8000        42
    50.8600        46
    50.9200        62
    50.9800       112
    51.0400        60
    51.1000        60
    51.1600        68
    51.2200        44
    51.2800        46
    51.3400        52
    51.4000        66
    51.4600        96
    51.5200       124
    51.5800       112
    51.6400        96
    51.7000        74
    51.7600        54
    51.8200        62
    51.8800        60
    51.9400        70
    52.0000        68
    52.0600        82
    52.1200       196
    52.1800       384
    52.2400       138
    52.3000       318
    52.3600       102
    52.4200        68
    52.4800        40
    52.5400        36
    52.6000        72
    52.6600        78
    52.7200        54
    52.7800        60
    52.8400        52
    52.9000        50
    52.9600        52
    53.0200       104
    53.0800        74
    53.1400        70
    53.2000        88
    53.2600        64
    53.3200        58
    53.3800        54
    53.4400        44
    53.5000        40
    53.5600        40
    53.6200        30
    53.6800        36
    53.7400        30
    53.8000        32
    53.8600        44
    53.9200        32
    53.9800        20
    54.0400        32
    54.1000        38
    54.1600        42
    54.2200        44
    54.2800        52
    54.3400        44
    54.4000        62
    54.4600        44
    54.5200        50
    54.5800        54
    54.6400        30
    54.7000        28
    54.7600        36
    54.8200        30
    54.8800        34
    54.9400        34
    55.0000        28
    55.0600        32
    55.1200        36
    55.1800        46
    55.2400        56
    55.3000        52
    55.3600        82
    55.4200        94
    55.4800        62
    55.5400        72
    55.6000       156
    55.6600       170
    55.7200        88
    55.7800       104
    55.8400        68
    55.9000        46
    55.9600        40
    56.0200        64
    56.0800        66
    56.1400        58
    56.2000        44
    56.2600        58
    56.3200        46
    56.3800        48
    56.4400        36
    56.5000        36
    56.5600        50
    56.6200        46
    56.6800        46
    56.7400        54
    56.8000        84
    56.8600       112
    56.9200        58
    56.9800        70
    57.0400       100
    57.1000        72
    57.1600        64
    57.2200        78
    57.2800        66
    57.3400        78
    57.4000        54
    57.4600        42
    57.5200        52
    57.5800        46
    57.6400        50
    57.7000        62
    57.7600        66
    57.8200       122
    57.8800       142
    57.9400       108
    58.0000       118
    58.0600       118
    58.1200       132
    58.1800       204
    58.2400       408
    58.3000       946
    58.3600       432
    58.4200       302
    58.4800       398
    58.5400       144
    58.6000        58
    58.6600        68
    58.7200        66
    58.7800        52
    58.8400        54
    58.9000        34
    58.9600        40
    59.0200        38
    59.0800        34
    59.1400        34
    59.2000        38
    59.2600        40
    59.3200        32
    59.3800        36
    59.4400        38
    59.5000        64
    59.5600        70
    59.6200        66
    59.6800        44
    59.7400        56
    59.8000        56
    59.8600        58
    59.9200        40
    59.9800        52
    60.0400        34
    60.1000        44
    60.1600        76
    60.2200        52
    60.2800        52
    60.3400        48
    60.4000        28
    60.4600        40
    60.5200        56
    60.5800        44
    60.6400        52
    60.7000        60
    60.7600        38
    60.8200        62
    60.8800        46
    60.9400        42
    61.0000        40
    61.0600        42
    61.1200        48
    61.1800        28
    61.2400        26
    61.3000        34
    61.3600        34
    61.4200        42
    61.4800        16
    61.5400        20
    61.6000        30
    61.6600        28
    61.7200        38
    61.7800        44
    61.8400        48
    61.9000        50
    61.9600        52
    62.0200        62
    62.0800        48
    62.1400       110
    62.2000        92
    62.2600        82
    62.3200        84
    62.3800        56
    62.4400        50
    62.5000        38
    62.5600        44
    62.6200        44
    62.6800        38
    62.7400        50
    62.8000        44
    62.8600        60
    62.9200        74
    62.9800       112
    63.0400       104
    63.1000       108
    63.1600        88
    63.2200        80
    63.2800        62
    63.3400        84
    63.4000        58
    63.4600        74
    63.5200       102
    63.5800       118
    63.6400       106
    63.7000        82
    63.7600        78
    63.8200        68
    63.8800        56
    63.9400        36
    64.0000        36
    64.0600        40
    64.1200        30
    64.1800        30
    64.2400        30
    64.3000        34
    64.3600        26
    64.4200        38
    64.4800        28
    64.5400        30
    64.6000        24
    64.6600        34
    64.7200        24
    64.7800        36
    64.8400        36
    64.9000        32
    64.9600        52
    65.0000        42