File: sl1/usgs/library06/DESCRIPT/new_xrd_results_to_be_added/Rhonda_Driscoll_xrd_runs/GDS5---Laumontite.txt
/////////////////////////////////////////////////////////////////////////////////
/// Profile Data Ascii Dump (XRD)                                             ///
/////////////////////////////////////////////////////////////////////////////////

  Group     : Swayze
  Data      : GDS5b
  File Name : GDS5b.RAW

# Profile Datafile
          comment             = Laumontite
          date & time         = 08-03-27 05:43:50

# Measurement Condition
    X-ray tube
          target              = Cu
          voltage             = 40.0 (kV)
          current             = 30.0 (mA)
    Slits
          divergence slit     = 2.00000 (deg)
          scatter slit        = 2.00000 (deg)
          receiving slit      = 0.15000 (mm)
    Scanning
          drive axis          = Theta-2Theta
          scan range          =    4.000 -   65.000
          scan mode           = Continuous Scan
          scan speed          =   2.0000 (deg/min)
          sampling pitch      =   0.0200 (deg)
          preset time         =   0.60 (sec)

# Data      [ Total No. = 3051 ]
  <2Theta>   <   I   >
     4.0000       182
     4.0600       204
     4.1200       192
     4.1800       172
     4.2400       160
     4.3000       178
     4.3600       170
     4.4200       184
     4.4800       164
     4.5400       186
     4.6000       164
     4.6600       152
     4.7200       164
     4.7800       164
     4.8400       180
     4.9000       174
     4.9600       176
     5.0200       174
     5.0800       154
     5.1400       148
     5.2000       176
     5.2600       152
     5.3200       154
     5.3800       154
     5.4400       152
     5.5000       152
     5.5600       144
     5.6200       172
     5.6800       156
     5.7400       186
     5.8000       162
     5.8600       154
     5.9200       144
     5.9800       174
     6.0400       164
     6.1000       182
     6.1600       166
     6.2200       160
     6.2800       168
     6.3400       146
     6.4000       156
     6.4600       140
     6.5200       112
     6.5800       130
     6.6400       124
     6.7000       130
     6.7600       152
     6.8200       132
     6.8800       120
     6.9400       124
     7.0000       144
     7.0600       106
     7.1200       118
     7.1800       136
     7.2400       108
     7.3000       128
     7.3600        86
     7.4200       138
     7.4800       118
     7.5400       126
     7.6000       124
     7.6600       122
     7.7200       124
     7.7800       112
     7.8400       100
     7.9000       142
     7.9600       132
     8.0200       110
     8.0800       128
     8.1400       116
     8.2000       128
     8.2600       100
     8.3200       110
     8.3800       172
     8.4400       134
     8.5000       138
     8.5600       136
     8.6200       136
     8.6800       146
     8.7400       136
     8.8000       198
     8.8600       204
     8.9200       220
     8.9800       302
     9.0400       348
     9.1000       430
     9.1600       808
     9.2200      1874
     9.2800      3618
     9.3400      1734
     9.4000       386
     9.4600       176
     9.5200       160
     9.5800       136
     9.6400       128
     9.7000       124
     9.7600       128
     9.8200       102
     9.8800       110
     9.9400       118
    10.0000       116
    10.0600        98
    10.1200       110
    10.1800       104
    10.2400       108
    10.3000       110
    10.3600        98
    10.4200       100
    10.4800        94
    10.5400        90
    10.6000       104
    10.6600        98
    10.7200        86
    10.7800       102
    10.8400        84
    10.9000       102
    10.9600       100
    11.0200        90
    11.0800        98
    11.1400        66
    11.2000        96
    11.2600        90
    11.3200        96
    11.3800       104
    11.4400        88
    11.5000        84
    11.5600        98
    11.6200        92
    11.6800        68
    11.7400        90
    11.8000        92
    11.8600        88
    11.9200        74
    11.9800        88
    12.0400       104
    12.1000       106
    12.1600        98
    12.2200       106
    12.2800        92
    12.3400       122
    12.4000       104
    12.4600       148
    12.5200       148
    12.5800       184
    12.6400       224
    12.7000       436
    12.7600       828
    12.8200      1192
    12.8800      1400
    12.9400       614
    13.0000       144
    13.0600        76
    13.1200        90
    13.1800        78
    13.2400        88
    13.3000        76
    13.3600        78
    13.4200        88
    13.4800        90
    13.5400        74
    13.6000        70
    13.6600        62
    13.7200        68
    13.7800        62
    13.8400        70
    13.9000       104
    13.9600        72
    14.0200        74
    14.0800        76
    14.1400        78
    14.2000        80
    14.2600        86
    14.3200        72
    14.3800        58
    14.4400        54
    14.5000        82
    14.5600        66
    14.6200        62
    14.6800        52
    14.7400        54
    14.8000        56
    14.8600        64
    14.9200        62
    14.9800        60
    15.0400        74
    15.1000        66
    15.1600        44
    15.2200        64
    15.2800        64
    15.3400        70
    15.4000        58
    15.4600        70
    15.5200        68
    15.5800        46
    15.6400        66
    15.7000        58
    15.7600        58
    15.8200        50
    15.8800        52
    15.9400        64
    16.0000        56
    16.0600        58
    16.1200        44
    16.1800        50
    16.2400        56
    16.3000        56
    16.3600        56
    16.4200        68
    16.4800        60
    16.5400        70
    16.6000        54
    16.6600        60
    16.7200        52
    16.7800        40
    16.8400        58
    16.9000        58
    16.9600        54
    17.0200        62
    17.0800        54
    17.1400        64
    17.2000        62
    17.2600        74
    17.3200        52
    17.3800        74
    17.4400        98
    17.5000       150
    17.5600       116
    17.6200        58
    17.6800        66
    17.7400        54
    17.8000        52
    17.8600        46
    17.9200        38
    17.9800        52
    18.0400        60
    18.1000        68
    18.1600        54
    18.2200        72
    18.2800        68
    18.3400        76
    18.4000        86
    18.4600       108
    18.5200       190
    18.5800       324
    18.6400       742
    18.7000       992
    18.7600       526
    18.8200       148
    18.8800        76
    18.9400        66
    19.0000        50
    19.0600        54
    19.1200        46
    19.1800        66
    19.2400        72
    19.3000        60
    19.3600        66
    19.4200        70
    19.4800        70
    19.5400        86
    19.6000       124
    19.6600       166
    19.7200        94
    19.7800        68
    19.8400        42
    19.9000        68
    19.9600        72
    20.0200        60
    20.0800        58
    20.1400        52
    20.2000        54
    20.2600        58
    20.3200        50
    20.3800        76
    20.4400        70
    20.5000       118
    20.5600       152
    20.6200        98
    20.6800        66
    20.7400        82
    20.8000        72
    20.8600        64
    20.9200       100
    20.9800       148
    21.0400       240
    21.1000       394
    21.1600       596
    21.2200      1062
    21.2800      1526
    21.3400      1800
    21.4000       706
    21.4600       182
    21.5200       104
    21.5800        78
    21.6400        60
    21.7000        76
    21.7600        52
    21.8200        40
    21.8800        38
    21.9400        44
    22.0000        56
    22.0600        60
    22.1200        50
    22.1800        46
    22.2400        42
    22.3000        54
    22.3600        48
    22.4200        44
    22.4800        50
    22.5400        38
    22.6000        38
    22.6600        46
    22.7200        50
    22.7800        40
    22.8400        46
    22.9000        36
    22.9600        38
    23.0200        42
    23.0800        46
    23.1400        42
    23.2000        42
    23.2600        46
    23.3200        44
    23.3800        50
    23.4400        60
    23.5000        82
    23.5600       102
    23.6200        46
    23.6800        50
    23.7400        46
    23.8000        40
    23.8600        60
    23.9200        54
    23.9800        62
    24.0400        88
    24.1000       124
    24.1600       200
    24.2200       310
    24.2800       274
    24.3400       120
    24.4000        58
    24.4600        58
    24.5200        50
    24.5800        58
    24.6400        42
    24.7000        46
    24.7600        42
    24.8200        46
    24.8800        52
    24.9400        72
    25.0000        92
    25.0600       138
    25.1200       252
    25.1800       374
    25.2400       438
    25.3000       416
    25.3600       218
    25.4200       108
    25.4800        86
    25.5400        70
    25.6000        52
    25.6600        52
    25.7200        48
    25.7800        70
    25.8400        66
    25.9000       110
    25.9600       128
    26.0200       200
    26.0800       180
    26.1400       122
    26.2000        68
    26.2600        62
    26.3200        98
    26.3800       138
    26.4400       192
    26.5000       146
    26.5600        72
    26.6200        36
    26.6800        46
    26.7400        52
    26.8000        56
    26.8600        58
    26.9200        94
    26.9800       130
    27.0400       290
    27.1000       502
    27.1600       768
    27.2200       718
    27.2800       378
    27.3400       126
    27.4000        66
    27.4600        70
    27.5200        68
    27.5800       102
    27.6400       116
    27.7000       154
    27.7600       246
    27.8200       210
    27.8800       162
    27.9400       108
    28.0000       138
    28.0600       242
    28.1200       570
    28.1800       910
    28.2400      1230
    28.3000       856
    28.3600       382
    28.4200       106
    28.4800        78
    28.5400        80
    28.6000        60
    28.6600        46
    28.7200        66
    28.7800        72
    28.8400        60
    28.9000        50
    28.9600        64
    29.0200        72
    29.0800       104
    29.1400       146
    29.2000       274
    29.2600       396
    29.3200       844
    29.3800      1110
    29.4400       790
    29.5000       354
    29.5600       130
    29.6200        58
    29.6800        58
    29.7400        50
    29.8000        38
    29.8600        46
    29.9200        38
    29.9800        58
    30.0400        62
    30.1000       130
    30.1600       132
    30.2200       202
    30.2800       156
    30.3400        82
    30.4000        42
    30.4600        46
    30.5200        38
    30.5800        38
    30.6400        42
    30.7000        42
    30.7600        64
    30.8200        74
    30.8800       110
    30.9400       196
    31.0000       202
    31.0600       126
    31.1200        70
    31.1800        44
    31.2400        44
    31.3000        38
    31.3600        54
    31.4200        42
    31.4800        54
    31.5400        32
    31.6000        54
    31.6600        46
    31.7200        54
    31.7800        78
    31.8400        92
    31.9000        94
    31.9600        80
    32.0200        56
    32.0800        40
    32.1400        46
    32.2000        36
    32.2600        40
    32.3200        38
    32.3800        30
    32.4400        40
    32.5000        46
    32.5600        54
    32.6200        40
    32.6800        48
    32.7400        48
    32.8000        44
    32.8600        38
    32.9200        56
    32.9800        34
    33.0400        48
    33.1000        46
    33.1600        34
    33.2200        42
    33.2800        42
    33.3400        50
    33.4000        40
    33.4600        36
    33.5200        36
    33.5800        40
    33.6400        40
    33.7000        52
    33.7600        54
    33.8200        66
    33.8800        92
    33.9400       108
    34.0000       104
    34.0600        72
    34.1200        64
    34.1800        48
    34.2400        46
    34.3000        46
    34.3600        52
    34.4200        42
    34.4800        58
    34.5400        48
    34.6000        98
    34.6600       212
    34.7200       430
    34.7800       360
    34.8400       254
    34.9000       134
    34.9600        82
    35.0200        44
    35.0800        60
    35.1400        62
    35.2000        84
    35.2600        72
    35.3200        70
    35.3800        92
    35.4400       100
    35.5000       204
    35.5600       178
    35.6200       128
    35.6800        78
    35.7400        54
    35.8000        48
    35.8600        54
    35.9200        40
    35.9800        32
    36.0400        38
    36.1000        38
    36.1600        42
    36.2200        60
    36.2800        84
    36.3400        90
    36.4000        92
    36.4600        74
    36.5200        68
    36.5800        86
    36.6400       190
    36.7000       282
    36.7600       432
    36.8200       318
    36.8800       192
    36.9400       100
    37.0000        46
    37.0600        34
    37.1200        42
    37.1800        40
    37.2400        40
    37.3000        48
    37.3600        36
    37.4200        42
    37.4800        58
    37.5400        58
    37.6000        68
    37.6600        70
    37.7200        78
    37.7800       110
    37.8400       132
    37.9000       334
    37.9600      1094
    38.0200      1188
    38.0800       848
    38.1400       346
    38.2000       128
    38.2600        86
    38.3200        68
    38.3800        48
    38.4400        38
    38.5000        32
    38.5600        38
    38.6200        70
    38.6800        68
    38.7400        74
    38.8000        76
    38.8600        74
    38.9200        56
    38.9800        36
    39.0400        46
    39.1000        50
    39.1600        36
    39.2200        30
    39.2800        56
    39.3400        98
    39.4000       106
    39.4600       120
    39.5200       128
    39.5800       196
    39.6400       302
    39.7000       240
    39.7600       182
    39.8200        94
    39.8800        48
    39.9400        38
    40.0000        44
    40.0600        40
    40.1200        44
    40.1800        40
    40.2400        32
    40.3000        34
    40.3600        42
    40.4200        40
    40.4800        50
    40.5400        68
    40.6000        78
    40.6600        60
    40.7200        48
    40.7800        42
    40.8400        34
    40.9000        38
    40.9600        50
    41.0200        46
    41.0800        54
    41.1400        46
    41.2000        80
    41.2600       140
    41.3200       186
    41.3800       176
    41.4400       124
    41.5000        86
    41.5600        68
    41.6200       106
    41.6800       156
    41.7400       206
    41.8000       356
    41.8600       526
    41.9200       566
    41.9800       356
    42.0400       224
    42.1000       106
    42.1600        76
    42.2200        54
    42.2800        48
    42.3400        32
    42.4000        50
    42.4600        26
    42.5200        34
    42.5800        38
    42.6400        40
    42.7000        36
    42.7600        48
    42.8200        30
    42.8800        30
    42.9400        22
    43.0000        38
    43.0600        54
    43.1200        80
    43.1800        84
    43.2400        92
    43.3000        80
    43.3600        90
    43.4200        82
    43.4800        82
    43.5400        46
    43.6000        52
    43.6600        38
    43.7200        36
    43.7800        48
    43.8400        42
    43.9000        44
    43.9600        52
    44.0200        38
    44.0800        42
    44.1400        34
    44.2000        38
    44.2600        40
    44.3200        40
    44.3800        38
    44.4400        26
    44.5000        32
    44.5600        36
    44.6200        26
    44.6800        38
    44.7400        48
    44.8000        34
    44.8600        36
    44.9200        30
    44.9800        34
    45.0400        34
    45.1000        38
    45.1600        40
    45.2200        60
    45.2800        42
    45.3400        78
    45.4000        74
    45.4600        74
    45.5200        94
    45.5800        82
    45.6400        58
    45.7000        40
    45.7600        36
    45.8200        40
    45.8800        48
    45.9400        38
    46.0000        62
    46.0600       122
    46.1200       142
    46.1800       180
    46.2400       172
    46.3000       184
    46.3600       124
    46.4200        90
    46.4800        72
    46.5400        60
    46.6000        50
    46.6600        46
    46.7200        46
    46.7800        50
    46.8400        46
    46.9000        40
    46.9600        48
    47.0200        52
    47.0800        36
    47.1400        30
    47.2000        26
    47.2600        32
    47.3200        18
    47.3800        36
    47.4400        36
    47.5000        38
    47.5600        56
    47.6200        48
    47.6800        56
    47.7400        46
    47.8000        46
    47.8600        32
    47.9200        62
    47.9800       174
    48.0400       322
    48.1000       240
    48.1600       216
    48.2200       134
    48.2800        78
    48.3400        86
    48.4000        56
    48.4600        40
    48.5200        94
    48.5800        92
    48.6400        98
    48.7000        66
    48.7600        56
    48.8200        42
    48.8800        36
    48.9400        50
    49.0000        54
    49.0600        82
    49.1200       120
    49.1800       104
    49.2400        74
    49.3000        68
    49.3600        40
    49.4200        34
    49.4800        30
    49.5400        40
    49.6000        32
    49.6600        40
    49.7200        60
    49.7800        92
    49.8400       100
    49.9000        66
    49.9600        64
    50.0200        38
    50.0800        40
    50.1400        20
    50.2000        36
    50.2600        36
    50.3200        50
    50.3800        32
    50.4400        36
    50.5000        32
    50.5600        34
    50.6200        38
    50.6800        48
    50.7400        28
    50.8000        48
    50.8600        38
    50.9200        26
    50.9800        22
    51.0400        26
    51.1000        42
    51.1600        38
    51.2200        24
    51.2800        38
    51.3400        36
    51.4000        38
    51.4600        32
    51.5200        40
    51.5800        62
    51.6400        48
    51.7000        52
    51.7600        58
    51.8200        94
    51.8800        88
    51.9400        76
    52.0000        62
    52.0600        48
    52.1200        36
    52.1800        36
    52.2400        38
    52.3000        42
    52.3600        30
    52.4200        32
    52.4800        30
    52.5400        44
    52.6000        46
    52.6600        44
    52.7200        32
    52.7800        28
    52.8400        38
    52.9000        30
    52.9600        36
    53.0200        32
    53.0800        40
    53.1400        30
    53.2000        38
    53.2600        38
    53.3200        38
    53.3800        50
    53.4400       100
    53.5000       116
    53.5600        94
    53.6200        76
    53.6800        98
    53.7400        96
    53.8000        68
    53.8600        74
    53.9200        54
    53.9800        38
    54.0400        34
    54.1000        36
    54.1600        34
    54.2200        32
    54.2800        24
    54.3400        32
    54.4000        58
    54.4600        68
    54.5200        38
    54.5800        52
    54.6400        38
    54.7000        36
    54.7600        34
    54.8200        50
    54.8800        40
    54.9400        42
    55.0000        40
    55.0600        38
    55.1200        38
    55.1800        30
    55.2400        42
    55.3000        40
    55.3600        30
    55.4200        34
    55.4800        42
    55.5400        38
    55.6000        32
    55.6600        58
    55.7200        38
    55.7800        50
    55.8400        42
    55.9000        48
    55.9600        48
    56.0200        68
    56.0800       114
    56.1400       194
    56.2000       192
    56.2600       124
    56.3200       148
    56.3800       116
    56.4400        94
    56.5000        96
    56.5600       108
    56.6200        92
    56.6800        72
    56.7400        50
    56.8000        48
    56.8600        42
    56.9200        32
    56.9800        28
    57.0400        44
    57.1000        36
    57.1600        20
    57.2200        32
    57.2800        34
    57.3400        36
    57.4000        52
    57.4600        52
    57.5200        92
    57.5800        74
    57.6400        54
    57.7000        50
    57.7600        56
    57.8200        72
    57.8800       102
    57.9400        98
    58.0000        80
    58.0600        78
    58.1200        54
    58.1800        54
    58.2400        62
    58.3000        52
    58.3600        70
    58.4200        88
    58.4800       168
    58.5400       140
    58.6000        88
    58.6600       114
    58.7200        92
    58.7800       120
    58.8400       282
    58.9000       452
    58.9600       332
    59.0200       228
    59.0800       262
    59.1400       138
    59.2000        70
    59.2600        52
    59.3200        50
    59.3800        38
    59.4400        34
    59.5000        30
    59.5600        36
    59.6200        34
    59.6800        54
    59.7400        44
    59.8000        40
    59.8600        48
    59.9200        36
    59.9800        30
    60.0400        40
    60.1000        58
    60.1600        56
    60.2200        80
    60.2800        66
    60.3400        62
    60.4000        62
    60.4600        52
    60.5200        64
    60.5800        62
    60.6400        88
    60.7000       126
    60.7600       178
    60.8200       138
    60.8800        94
    60.9400       114
    61.0000        78
    61.0600        52
    61.1200        32
    61.1800        46
    61.2400        42
    61.3000        46
    61.3600        58
    61.4200        48
    61.4800        30
    61.5400        32
    61.6000        36
    61.6600        26
    61.7200        38
    61.7800        30
    61.8400        58
    61.9000        48
    61.9600        52
    62.0200        60
    62.0800        60
    62.1400        46
    62.2000        58
    62.2600        52
    62.3200        44
    62.3800        50
    62.4400        46
    62.5000        32
    62.5600        42
    62.6200        50
    62.6800        36
    62.7400        60
    62.8000        66
    62.8600       110
    62.9200       128
    62.9800       136
    63.0400       116
    63.1000        86
    63.1600        66
    63.2200        60
    63.2800        44
    63.3400        38
    63.4000        28
    63.4600        32
    63.5200        32
    63.5800        36
    63.6400        34
    63.7000        40
    63.7600        44
    63.8200        28
    63.8800        52
    63.9400        44
    64.0000        30
    64.0600        32
    64.1200        48
    64.1800        46
    64.2400        58
    64.3000        58
    64.3600        78
    64.4200        68
    64.4800        74
    64.5400        84
    64.6000       128
    64.6600       226
    64.7200       200
    64.7800       136
    64.8400       212
    64.9000       208
    64.9600       132
    65.0000       106