File: sl1/usgs/library06/DESCRIPT/new_xrd_results_to_be_added/Rhonda_Driscoll_xrd_runs/GDS55---Na-bicarb.txt
/////////////////////////////////////////////////////////////////////////////////
/// Profile Data Ascii Dump (XRD)                                             ///
/////////////////////////////////////////////////////////////////////////////////

  Group     : Swayze
  Data      : GDS55
  File Name : GDS55.RAW

# Profile Datafile
          comment             = Na-bicarb
          date & time         = 08-03-13 06:52:47

# Measurement Condition
    X-ray tube
          target              = Cu
          voltage             = 40.0 (kV)
          current             = 30.0 (mA)
    Slits
          divergence slit     = 2.00000 (deg)
          scatter slit        = 2.00000 (deg)
          receiving slit      = 0.15000 (mm)
    Scanning
          drive axis          = Theta-2Theta
          scan range          =    4.000 -   65.000
          scan mode           = Continuous Scan
          scan speed          =   2.0000 (deg/min)
          sampling pitch      =   0.0200 (deg)
          preset time         =   0.60 (sec)

# Data      [ Total No. = 3051 ]
  <2Theta>   <   I   >
     4.0000       164
     4.0600       176
     4.1200       168
     4.1800       176
     4.2400       168
     4.3000       172
     4.3600       186
     4.4200       170
     4.4800       176
     4.5400       160
     4.6000       158
     4.6600       158
     4.7200       168
     4.7800       136
     4.8400       170
     4.9000       132
     4.9600       152
     5.0200       140
     5.0800       172
     5.1400       144
     5.2000       178
     5.2600       168
     5.3200       150
     5.3800       150
     5.4400       136
     5.5000       168
     5.5600       174
     5.6200       148
     5.6800       152
     5.7400       160
     5.8000       172
     5.8600       164
     5.9200       160
     5.9800       168
     6.0400       156
     6.1000       164
     6.1600       150
     6.2200       154
     6.2800       144
     6.3400       132
     6.4000       136
     6.4600       142
     6.5200       136
     6.5800       126
     6.6400       152
     6.7000       150
     6.7600       120
     6.8200       120
     6.8800       132
     6.9400       110
     7.0000       140
     7.0600       120
     7.1200       132
     7.1800       118
     7.2400       110
     7.3000       116
     7.3600       114
     7.4200       134
     7.4800       138
     7.5400       110
     7.6000       104
     7.6600        92
     7.7200       116
     7.7800       132
     7.8400       108
     7.9000       114
     7.9600       118
     8.0200       116
     8.0800       136
     8.1400       112
     8.2000       114
     8.2600       102
     8.3200       110
     8.3800       126
     8.4400       108
     8.5000       100
     8.5600       122
     8.6200       108
     8.6800       100
     8.7400       110
     8.8000       114
     8.8600       102
     8.9200       114
     8.9800       124
     9.0400       116
     9.1000       122
     9.1600       106
     9.2200       134
     9.2800       148
     9.3400       104
     9.4000       112
     9.4600       112
     9.5200       106
     9.5800       120
     9.6400       114
     9.7000       108
     9.7600       132
     9.8200       182
     9.8800       134
     9.9400        98
    10.0000        80
    10.0600       120
    10.1200        98
    10.1800       106
    10.2400        96
    10.3000       106
    10.3600       106
    10.4200       120
    10.4800        88
    10.5400        84
    10.6000        94
    10.6600        98
    10.7200       108
    10.7800        80
    10.8400        78
    10.9000       100
    10.9600       116
    11.0200        98
    11.0800        92
    11.1400       102
    11.2000       100
    11.2600        82
    11.3200        90
    11.3800        76
    11.4400        80
    11.5000        74
    11.5600        98
    11.6200        84
    11.6800        92
    11.7400        84
    11.8000        82
    11.8600        86
    11.9200        84
    11.9800        84
    12.0400        74
    12.1000        80
    12.1600        82
    12.2200        80
    12.2800        80
    12.3400        72
    12.4000        80
    12.4600        94
    12.5200        92
    12.5800        78
    12.6400        72
    12.7000        84
    12.7600        80
    12.8200        62
    12.8800        68
    12.9400        64
    13.0000        72
    13.0600        82
    13.1200        68
    13.1800        82
    13.2400        56
    13.3000        72
    13.3600        76
    13.4200        78
    13.4800        56
    13.5400        74
    13.6000        66
    13.6600        66
    13.7200        64
    13.7800        78
    13.8400        56
    13.9000        74
    13.9600        62
    14.0200        64
    14.0800        64
    14.1400        76
    14.2000        58
    14.2600        72
    14.3200        80
    14.3800        72
    14.4400        80
    14.5000       100
    14.5600        98
    14.6200       110
    14.6800       116
    14.7400       102
    14.8000       172
    14.8600       220
    14.9200       296
    14.9800       198
    15.0400       106
    15.1000        64
    15.1600        74
    15.2200        64
    15.2800        58
    15.3400        72
    15.4000        64
    15.4600        52
    15.5200        68
    15.5800        66
    15.6400        64
    15.7000        54
    15.7600        72
    15.8200        76
    15.8800        66
    15.9400        66
    16.0000        58
    16.0600        78
    16.1200        68
    16.1800        58
    16.2400        62
    16.3000        56
    16.3600        60
    16.4200        60
    16.4800        88
    16.5400        56
    16.6000        60
    16.6600        56
    16.7200        62
    16.7800        62
    16.8400        74
    16.9000        54
    16.9600        46
    17.0200        60
    17.0800        66
    17.1400        52
    17.2000        56
    17.2600        58
    17.3200        66
    17.3800        70
    17.4400        80
    17.5000        76
    17.5600        64
    17.6200        72
    17.6800        74
    17.7400        80
    17.8000        86
    17.8600        94
    17.9200       134
    17.9800       172
    18.0400       238
    18.1000       386
    18.1600       782
    18.2200      1248
    18.2800      1308
    18.3400       540
    18.4000       146
    18.4600       100
    18.5200       100
    18.5800       108
    18.6400        92
    18.7000       102
    18.7600        72
    18.8200        56
    18.8800        66
    18.9400        62
    19.0000        56
    19.0600        50
    19.1200        54
    19.1800        40
    19.2400        62
    19.3000        62
    19.3600        50
    19.4200        58
    19.4800        54
    19.5400        44
    19.6000        50
    19.6600        44
    19.7200        64
    19.7800        58
    19.8400        52
    19.9000        62
    19.9600        64
    20.0200        50
    20.0800        48
    20.1400        52
    20.2000        58
    20.2600        54
    20.3200        58
    20.3800        66
    20.4400        56
    20.5000        58
    20.5600        42
    20.6200        54
    20.6800        54
    20.7400        52
    20.8000        44
    20.8600        58
    20.9200        50
    20.9800        40
    21.0400        40
    21.1000        48
    21.1600        70
    21.2200        76
    21.2800        88
    21.3400        94
    21.4000       120
    21.4600       118
    21.5200        78
    21.5800        76
    21.6400        94
    21.7000       102
    21.7600       168
    21.8200       156
    21.8800        90
    21.9400        54
    22.0000        70
    22.0600        70
    22.1200        56
    22.1800        68
    22.2400        50
    22.3000        84
    22.3600        66
    22.4200        78
    22.4800        80
    22.5400        62
    22.6000        48
    22.6600        48
    22.7200        60
    22.7800        44
    22.8400        66
    22.9000        54
    22.9600        66
    23.0200        62
    23.0800        46
    23.1400        58
    23.2000        50
    23.2600        48
    23.3200        54
    23.3800        58
    23.4400        56
    23.5000        58
    23.5600        82
    23.6200        88
    23.6800       104
    23.7400       122
    23.8000       132
    23.8600       114
    23.9200       114
    23.9800       198
    24.0400       290
    24.1000       272
    24.1600       166
    24.2200        84
    24.2800        68
    24.3400        58
    24.4000        48
    24.4600        48
    24.5200        58
    24.5800        46
    24.6400        56
    24.7000        60
    24.7600        54
    24.8200        48
    24.8800        64
    24.9400        58
    25.0000        70
    25.0600        70
    25.1200        94
    25.1800       110
    25.2400       156
    25.3000       204
    25.3600       340
    25.4200       666
    25.4800       734
    25.5400       536
    25.6000       290
    25.6600       124
    25.7200        70
    25.7800        70
    25.8400        68
    25.9000        36
    25.9600        60
    26.0200        54
    26.0800        64
    26.1400        54
    26.2000        58
    26.2600        70
    26.3200        70
    26.3800        64
    26.4400        66
    26.5000        64
    26.5600        44
    26.6200        82
    26.6800        70
    26.7400        80
    26.8000        96
    26.8600       102
    26.9200        86
    26.9800       112
    27.0400       132
    27.1000       208
    27.1600       162
    27.2200       152
    27.2800       166
    27.3400       140
    27.4000       122
    27.4600       130
    27.5200       166
    27.5800       178
    27.6400       118
    27.7000        80
    27.7600        72
    27.8200        72
    27.8800        72
    27.9400        68
    28.0000        72
    28.0600        72
    28.1200       100
    28.1800        80
    28.2400        84
    28.3000        86
    28.3600        88
    28.4200        92
    28.4800       136
    28.5400       202
    28.6000       208
    28.6600       278
    28.7200       300
    28.7800       412
    28.8400       566
    28.9000       582
    28.9600       584
    29.0200       656
    29.0800       598
    29.1400       404
    29.2000       258
    29.2600       168
    29.3200       130
    29.3800       108
    29.4400       116
    29.5000       114
    29.5600       148
    29.6200       160
    29.6800       176
    29.7400       216
    29.8000       324
    29.8600       588
    29.9200       948
    29.9800      1644
    30.0400      2608
    30.1000      3610
    30.1600      3356
    30.2200      2514
    30.2800      1934
    30.3400      1754
    30.4000      1150
    30.4600       692
    30.5200       416
    30.5800       378
    30.6400       282
    30.7000       216
    30.7600       142
    30.8200       142
    30.8800       152
    30.9400       142
    31.0000       170
    31.0600       176
    31.1200       180
    31.1800       202
    31.2400       240
    31.3000       212
    31.3600       252
    31.4200       296
    31.4800       326
    31.5400       232
    31.6000       182
    31.6600       164
    31.7200       188
    31.7800       234
    31.8400       308
    31.9000       286
    31.9600       200
    32.0200       132
    32.0800       104
    32.1400        96
    32.2000        92
    32.2600        96
    32.3200       100
    32.3800        98
    32.4400       104
    32.5000       112
    32.5600       152
    32.6200       184
    32.6800       214
    32.7400       216
    32.8000       168
    32.8600       116
    32.9200       138
    32.9800       144
    33.0400       148
    33.1000       182
    33.1600       350
    33.2200       428
    33.2800       484
    33.3400       376
    33.4000       296
    33.4600       296
    33.5200       364
    33.5800       458
    33.6400       416
    33.7000       388
    33.7600       496
    33.8200       458
    33.8800       374
    33.9400       264
    34.0000       258
    34.0600       244
    34.1200       322
    34.1800       430
    34.2400       702
    34.3000      1106
    34.3600      1548
    34.4200      1548
    34.4800       996
    34.5400       454
    34.6000       214
    34.6600       128
    34.7200        94
    34.7800        86
    34.8400        94
    34.9000       108
    34.9600       144
    35.0200       154
    35.0800       194
    35.1400       212
    35.2000       174
    35.2600       130
    35.3200       112
    35.3800       102
    35.4400        98
    35.5000        84
    35.5600       112
    35.6200       100
    35.6800       102
    35.7400        88
    35.8000        82
    35.8600        80
    35.9200        88
    35.9800       138
    36.0400       132
    36.1000       194
    36.1600       226
    36.2200       228
    36.2800       188
    36.3400       142
    36.4000       106
    36.4600       118
    36.5200       186
    36.5800       222
    36.6400       218
    36.7000       172
    36.7600       116
    36.8200        82
    36.8800        80
    36.9400        78
    37.0000        72
    37.0600        82
    37.1200       120
    37.1800       156
    37.2400       142
    37.3000       140
    37.3600       118
    37.4200        96
    37.4800        92
    37.5400        82
    37.6000        72
    37.6600        80
    37.7200        88
    37.7800        78
    37.8400        90
    37.9000        90
    37.9600        88
    38.0200        86
    38.0800        50
    38.1400        68
    38.2000        66
    38.2600        68
    38.3200        86
    38.3800        98
    38.4400       122
    38.5000       142
    38.5600       162
    38.6200       148
    38.6800       168
    38.7400       192
    38.8000       296
    38.8600       456
    38.9200       602
    38.9800       666
    39.0400       472
    39.1000       280
    39.1600       164
    39.2200       164
    39.2800       116
    39.3400       100
    39.4000       110
    39.4600       116
    39.5200        98
    39.5800        88
    39.6400        92
    39.7000       100
    39.7600        72
    39.8200        94
    39.8800        88
    39.9400       100
    40.0000        88
    40.0600        86
    40.1200        98
    40.1800       132
    40.2400       166
    40.3000       202
    40.3600       286
    40.4200       378
    40.4800       528
    40.5400       738
    40.6000      1078
    40.6600      1184
    40.7200       892
    40.7800       606
    40.8400       320
    40.9000       190
    40.9600       146
    41.0200       118
    41.0800       100
    41.1400       100
    41.2000        86
    41.2600        68
    41.3200        82
    41.3800        80
    41.4400        80
    41.5000        76
    41.5600        64
    41.6200        54
    41.6800        70
    41.7400        56
    41.8000        72
    41.8600        68
    41.9200        92
    41.9800        74
    42.0400        76
    42.1000        66
    42.1600        80
    42.2200        84
    42.2800        72
    42.3400        62
    42.4000        90
    42.4600        82
    42.5200       100
    42.5800        94
    42.6400       130
    42.7000       126
    42.7600       106
    42.8200       106
    42.8800        94
    42.9400       130
    43.0000       166
    43.0600       212
    43.1200       232
    43.1800       242
    43.2400       270
    43.3000       238
    43.3600       248
    43.4200       178
    43.4800       132
    43.5400        96
    43.6000        86
    43.6600       102
    43.7200        90
    43.7800       104
    43.8400        84
    43.9000        88
    43.9600       108
    44.0200        94
    44.0800       122
    44.1400       166
    44.2000       226
    44.2600       384
    44.3200       510
    44.3800       778
    44.4400       860
    44.5000       826
    44.5600       546
    44.6200       342
    44.6800       178
    44.7400       122
    44.8000        82
    44.8600        90
    44.9200        92
    44.9800        88
    45.0400        98
    45.1000       126
    45.1600       156
    45.2200       150
    45.2800       158
    45.3400       170
    45.4000       186
    45.4600       260
    45.5200       318
    45.5800       308
    45.6400       254
    45.7000       226
    45.7600       210
    45.8200       320
    45.8800       494
    45.9400       532
    46.0000       584
    46.0600       420
    46.1200       270
    46.1800       186
    46.2400       122
    46.3000       114
    46.3600       114
    46.4200       108
    46.4800       102
    46.5400       142
    46.6000       198
    46.6600       216
    46.7200       326
    46.7800       334
    46.8400       336
    46.9000       244
    46.9600       214
    47.0200       168
    47.0800       152
    47.1400       144
    47.2000       158
    47.2600       168
    47.3200       212
    47.3800       254
    47.4400       342
    47.5000       400
    47.5600       488
    47.6200       522
    47.6800       440
    47.7400       318
    47.8000       204
    47.8600       124
    47.9200        96
    47.9800       102
    48.0400        86
    48.1000       112
    48.1600       110
    48.2200       118
    48.2800       130
    48.3400       184
    48.4000       192
    48.4600       242
    48.5200       224
    48.5800       162
    48.6400       148
    48.7000       126
    48.7600       102
    48.8200        76
    48.8800        92
    48.9400        62
    49.0000        84
    49.0600        82
    49.1200        60
    49.1800        70
    49.2400        84
    49.3000        76
    49.3600        98
    49.4200        86
    49.4800        94
    49.5400        66
    49.6000        86
    49.6600        98
    49.7200       110
    49.7800        92
    49.8400       104
    49.9000        92
    49.9600        92
    50.0200       102
    50.0800       102
    50.1400        96
    50.2000        96
    50.2600       112
    50.3200       102
    50.3800        92
    50.4400       110
    50.5000        92
    50.5600       112
    50.6200        90
    50.6800        94
    50.7400        78
    50.8000        74
    50.8600        86
    50.9200       104
    50.9800       114
    51.0400       138
    51.1000       132
    51.1600       154
    51.2200       202
    51.2800       190
    51.3400       178
    51.4000       150
    51.4600       142
    51.5200       116
    51.5800       112
    51.6400        92
    51.7000       112
    51.7600       104
    51.8200       104
    51.8800       110
    51.9400       126
    52.0000       134
    52.0600       138
    52.1200       138
    52.1800       134
    52.2400       176
    52.3000       174
    52.3600       226
    52.4200       260
    52.4800       264
    52.5400       276
    52.6000       316
    52.6600       262
    52.7200       220
    52.7800       152
    52.8400       126
    52.9000       132
    52.9600       142
    53.0200       154
    53.0800       150
    53.1400       160
    53.2000       182
    53.2600       130
    53.3200       140
    53.3800       142
    53.4400       138
    53.5000       140
    53.5600       124
    53.6200       130
    53.6800       142
    53.7400       118
    53.8000       120
    53.8600       140
    53.9200       136
    53.9800       108
    54.0400       162
    54.1000       180
    54.1600       196
    54.2200       180
    54.2800       150
    54.3400       112
    54.4000       106
    54.4600       104
    54.5200        94
    54.5800       100
    54.6400        84
    54.7000        86
    54.7600        72
    54.8200       106
    54.8800        92
    54.9400       120
    55.0000       146
    55.0600       224
    55.1200       262
    55.1800       246
    55.2400       242
    55.3000       180
    55.3600       148
    55.4200       108
    55.4800        94
    55.5400        90
    55.6000        90
    55.6600       102
    55.7200        82
    55.7800       102
    55.8400       116
    55.9000       124
    55.9600       138
    56.0200       134
    56.0800       146
    56.1400       140
    56.2000       132
    56.2600       140
    56.3200       198
    56.3800       226
    56.4400       176
    56.5000       178
    56.5600       160
    56.6200       164
    56.6800       152
    56.7400       180
    56.8000       294
    56.8600       506
    56.9200       900
    56.9800       962
    57.0400       546
    57.1000       552
    57.1600       370
    57.2200       164
    57.2800       108
    57.3400       114
    57.4000        92
    57.4600       112
    57.5200       102
    57.5800       110
    57.6400        82
    57.7000       100
    57.7600       124
    57.8200       110
    57.8800       130
    57.9400       134
    58.0000       140
    58.0600       148
    58.1200       194
    58.1800       198
    58.2400       212
    58.3000       238
    58.3600       222
    58.4200       140
    58.4800       146
    58.5400       122
    58.6000       100
    58.6600        80
    58.7200        58
    58.7800        68
    58.8400        64
    58.9000        78
    58.9600        80
    59.0200       108
    59.0800        94
    59.1400       128
    59.2000       116
    59.2600        96
    59.3200        86
    59.3800        78
    59.4400        68
    59.5000        78
    59.5600        76
    59.6200        76
    59.6800        72
    59.7400        70
    59.8000        92
    59.8600        82
    59.9200       110
    59.9800        94
    60.0400        84
    60.1000        94
    60.1600       114
    60.2200       112
    60.2800       136
    60.3400       138
    60.4000       190
    60.4600       236
    60.5200       206
    60.5800       212
    60.6400       244
    60.7000       264
    60.7600       220
    60.8200       218
    60.8800       158
    60.9400       116
    61.0000        94
    61.0600        76
    61.1200        68
    61.1800        64
    61.2400        68
    61.3000        70
    61.3600        70
    61.4200        82
    61.4800        74
    61.5400        82
    61.6000        72
    61.6600        88
    61.7200        84
    61.7800        74
    61.8400        56
    61.9000        54
    61.9600        58
    62.0200        82
    62.0800        72
    62.1400        72
    62.2000        68
    62.2600        72
    62.3200        96
    62.3800        92
    62.4400       144
    62.5000       170
    62.5600       210
    62.6200       192
    62.6800       154
    62.7400       146
    62.8000       152
    62.8600        80
    62.9200        70
    62.9800        76
    63.0400        86
    63.1000        88
    63.1600        86
    63.2200        92
    63.2800        98
    63.3400       102
    63.4000        98
    63.4600        88
    63.5200        62
    63.5800        70
    63.6400        80
    63.7000        54
    63.7600        68
    63.8200        52
    63.8800        64
    63.9400        94
    64.0000        76
    64.0600        72
    64.1200        66
    64.1800        86
    64.2400        88
    64.3000       116
    64.3600       124
    64.4200       108
    64.4800        72
    64.5400        82
    64.6000       104
    64.6600        78
    64.7200        88
    64.7800        78
    64.8400       100
    64.9000        84
    64.9600        72
    65.0000        74