File: sl1/usgs/library06/DESCRIPT/new_xrd_results_to_be_added/Rhonda_Driscoll_xrd_runs/GDS50A---Sapolite-grp..txt
/////////////////////////////////////////////////////////////////////////////////
/// Profile Data Ascii Dump (XRD)                                             ///
/////////////////////////////////////////////////////////////////////////////////

  Group     : Swayze
  Data      : GDS50A
  File Name : GDS50A.RAW

# Profile Datafile
          comment             = Scapolite grp
          date & time         = 08-03-27 07:47:40

# Measurement Condition
    X-ray tube
          target              = Cu
          voltage             = 40.0 (kV)
          current             = 30.0 (mA)
    Slits
          divergence slit     = 2.00000 (deg)
          scatter slit        = 2.00000 (deg)
          receiving slit      = 0.15000 (mm)
    Scanning
          drive axis          = Theta-2Theta
          scan range          =    4.000 -   65.000
          scan mode           = Continuous Scan
          scan speed          =   2.0000 (deg/min)
          sampling pitch      =   0.0200 (deg)
          preset time         =   0.60 (sec)

# Data      [ Total No. = 3051 ]
  <2Theta>   <   I   >
     4.0000       138
     4.0600       166
     4.1200       170
     4.1800       182
     4.2400       172
     4.3000       176
     4.3600       188
     4.4200       176
     4.4800       164
     4.5400       156
     4.6000       148
     4.6600       178
     4.7200       138
     4.7800       156
     4.8400       136
     4.9000       148
     4.9600       142
     5.0200       156
     5.0800       138
     5.1400       146
     5.2000       154
     5.2600       144
     5.3200       154
     5.3800       166
     5.4400       176
     5.5000       150
     5.5600       136
     5.6200       138
     5.6800       170
     5.7400       154
     5.8000       158
     5.8600       136
     5.9200       144
     5.9800       146
     6.0400       142
     6.1000       154
     6.1600       150
     6.2200       136
     6.2800       138
     6.3400       118
     6.4000       132
     6.4600       130
     6.5200       128
     6.5800       130
     6.6400       118
     6.7000       138
     6.7600       124
     6.8200       136
     6.8800       124
     6.9400       116
     7.0000       126
     7.0600       122
     7.1200       108
     7.1800       114
     7.2400       112
     7.3000       122
     7.3600       102
     7.4200       108
     7.4800       112
     7.5400        94
     7.6000        90
     7.6600       110
     7.7200       120
     7.7800       106
     7.8400       132
     7.9000       114
     7.9600        90
     8.0200       110
     8.0800        96
     8.1400        98
     8.2000       126
     8.2600       106
     8.3200        98
     8.3800       124
     8.4400       114
     8.5000       122
     8.5600       116
     8.6200       116
     8.6800       100
     8.7400       112
     8.8000       106
     8.8600       104
     8.9200       128
     8.9800       108
     9.0400       102
     9.1000       134
     9.1600       122
     9.2200       108
     9.2800        96
     9.3400        94
     9.4000       114
     9.4600       108
     9.5200       100
     9.5800       130
     9.6400       108
     9.7000       100
     9.7600        92
     9.8200       112
     9.8800        96
     9.9400        88
    10.0000       132
    10.0600       102
    10.1200       112
    10.1800       104
    10.2400       120
    10.3000       168
    10.3600        94
    10.4200       104
    10.4800        92
    10.5400        94
    10.6000       104
    10.6600        90
    10.7200        88
    10.7800       110
    10.8400        86
    10.9000        92
    10.9600        94
    11.0200        82
    11.0800        96
    11.1400        92
    11.2000        76
    11.2600        76
    11.3200        86
    11.3800        82
    11.4400        94
    11.5000        98
    11.5600        66
    11.6200        74
    11.6800        78
    11.7400        80
    11.8000        76
    11.8600        74
    11.9200        78
    11.9800        60
    12.0400        92
    12.1000        76
    12.1600        72
    12.2200        88
    12.2800        80
    12.3400        74
    12.4000        82
    12.4600        74
    12.5200        88
    12.5800        66
    12.6400        86
    12.7000        58
    12.7600        82
    12.8200        70
    12.8800        82
    12.9400        66
    13.0000        66
    13.0600        82
    13.1200        62
    13.1800        66
    13.2400        60
    13.3000        56
    13.3600        64
    13.4200        60
    13.4800        74
    13.5400        86
    13.6000        82
    13.6600       134
    13.7200        98
    13.7800        90
    13.8400        68
    13.9000        64
    13.9600        70
    14.0200        72
    14.0800        82
    14.1400        80
    14.2000        72
    14.2600        94
    14.3200        80
    14.3800        88
    14.4400       142
    14.5000       200
    14.5600       208
    14.6200       188
    14.6800        74
    14.7400        72
    14.8000        46
    14.8600        58
    14.9200        60
    14.9800        64
    15.0400        44
    15.1000        60
    15.1600        74
    15.2200        62
    15.2800        42
    15.3400        68
    15.4000        62
    15.4600        50
    15.5200        66
    15.5800        56
    15.6400        56
    15.7000        40
    15.7600        54
    15.8200        58
    15.8800        54
    15.9400        46
    16.0000        48
    16.0600        66
    16.1200        56
    16.1800        52
    16.2400        50
    16.3000        44
    16.3600        54
    16.4200        64
    16.4800        50
    16.5400        54
    16.6000        54
    16.6600        40
    16.7200        52
    16.7800        56
    16.8400        50
    16.9000        60
    16.9600        46
    17.0200        56
    17.0800        66
    17.1400        50
    17.2000        56
    17.2600        62
    17.3200        50
    17.3800        60
    17.4400        66
    17.5000        36
    17.5600        42
    17.6200        44
    17.6800        56
    17.7400        32
    17.8000        68
    17.8600        52
    17.9200        40
    17.9800        42
    18.0400        36
    18.1000        62
    18.1600        50
    18.2200        54
    18.2800        48
    18.3400        40
    18.4000        56
    18.4600        56
    18.5200        42
    18.5800        50
    18.6400        74
    18.7000        64
    18.7600        54
    18.8200        58
    18.8800        42
    18.9400        44
    19.0000        44
    19.0600        46
    19.1200        58
    19.1800        42
    19.2400        46
    19.3000        64
    19.3600        54
    19.4200        44
    19.4800        28
    19.5400        48
    19.6000        54
    19.6600        42
    19.7200        60
    19.7800        48
    19.8400        50
    19.9000        44
    19.9600        74
    20.0200        96
    20.0800       100
    20.1400        80
    20.2000        52
    20.2600        50
    20.3200        42
    20.3800        68
    20.4400        46
    20.5000        54
    20.5600        58
    20.6200        74
    20.6800        82
    20.7400        68
    20.8000        46
    20.8600        56
    20.9200        44
    20.9800        50
    21.0400        46
    21.1000        46
    21.1600        38
    21.2200        44
    21.2800        42
    21.3400        40
    21.4000        44
    21.4600        36
    21.5200        36
    21.5800        42
    21.6400        66
    21.7000        34
    21.7600        46
    21.8200        40
    21.8800        50
    21.9400        38
    22.0000        46
    22.0600        52
    22.1200        44
    22.1800        54
    22.2400        48
    22.3000        54
    22.3600        52
    22.4200        40
    22.4800        38
    22.5400        54
    22.6000        54
    22.6600        58
    22.7200        50
    22.7800        60
    22.8400        78
    22.9000       110
    22.9600       140
    23.0200       220
    23.0800       356
    23.1400       444
    23.2000       414
    23.2600       224
    23.3200        80
    23.3800        72
    23.4400        54
    23.5000        38
    23.5600        42
    23.6200        54
    23.6800        62
    23.7400        64
    23.8000        62
    23.8600        58
    23.9200        46
    23.9800        42
    24.0400        48
    24.1000        46
    24.1600        40
    24.2200        44
    24.2800        40
    24.3400        46
    24.4000        56
    24.4600        70
    24.5200        72
    24.5800        48
    24.6400        70
    24.7000        84
    24.7600       154
    24.8200       182
    24.8800       376
    24.9400       416
    25.0000       220
    25.0600        78
    25.1200        66
    25.1800        96
    25.2400       102
    25.3000       168
    25.3600       278
    25.4200       474
    25.4800       850
    25.5400      1466
    25.6000      3544
    25.6600      2170
    25.7200       550
    25.7800       128
    25.8400        90
    25.9000        86
    25.9600        66
    26.0200        56
    26.0800        64
    26.1400        70
    26.2000        42
    26.2600        44
    26.3200        32
    26.3800        40
    26.4400        36
    26.5000        40
    26.5600        62
    26.6200        50
    26.6800        46
    26.7400        42
    26.8000        30
    26.8600        46
    26.9200        32
    26.9800        42
    27.0400        34
    27.1000        44
    27.1600        52
    27.2200        30
    27.2800        30
    27.3400        32
    27.4000        30
    27.4600        46
    27.5200        32
    27.5800        54
    27.6400        54
    27.7000        56
    27.7600        40
    27.8200        34
    27.8800        36
    27.9400        40
    28.0000        36
    28.0600        36
    28.1200        40
    28.1800        44
    28.2400        44
    28.3000        46
    28.3600        42
    28.4200        46
    28.4800        44
    28.5400        46
    28.6000        72
    28.6600       194
    28.7200       422
    28.7800       308
    28.8400       290
    28.9000       618
    28.9600      1080
    29.0200      1246
    29.0800       718
    29.1400       340
    29.2000       126
    29.2600       190
    29.3200       260
    29.3800       532
    29.4400       636
    29.5000       652
    29.5600       314
    29.6200       124
    29.6800        58
    29.7400        52
    29.8000        44
    29.8600        34
    29.9200        32
    29.9800        26
    30.0400        34
    30.1000        38
    30.1600        40
    30.2200        44
    30.2800        42
    30.3400        28
    30.4000        28
    30.4600        34
    30.5200        46
    30.5800        42
    30.6400        42
    30.7000        46
    30.7600        38
    30.8200        30
    30.8800        26
    30.9400        38
    31.0000        28
    31.0600        52
    31.1200        44
    31.1800       112
    31.2400       166
    31.3000       186
    31.3600       150
    31.4200       116
    31.4800        94
    31.5400        86
    31.6000        38
    31.6600        42
    31.7200        38
    31.7800        32
    31.8400        36
    31.9000        46
    31.9600        34
    32.0200        40
    32.0800        22
    32.1400        40
    32.2000        42
    32.2600        46
    32.3200        52
    32.3800        56
    32.4400        66
    32.5000       100
    32.5600       150
    32.6200       326
    32.6800       344
    32.7400       194
    32.8000       126
    32.8600       132
    32.9200       178
    32.9800       298
    33.0400       356
    33.1000       526
    33.1600       884
    33.2200       608
    33.2800       346
    33.3400       102
    33.4000        58
    33.4600        44
    33.5200        44
    33.5800        46
    33.6400        44
    33.7000        36
    33.7600        24
    33.8200        46
    33.8800        26
    33.9400        30
    34.0000        26
    34.0600        40
    34.1200        38
    34.1800        24
    34.2400        26
    34.3000        36
    34.3600        28
    34.4200        40
    34.4800        34
    34.5400        30
    34.6000        32
    34.6600        32
    34.7200        40
    34.7800        34
    34.8400        30
    34.9000        26
    34.9600        32
    35.0200        46
    35.0800        32
    35.1400        42
    35.2000        38
    35.2600        24
    35.3200        20
    35.3800        32
    35.4400        18
    35.5000        32
    35.5600        38
    35.6200        32
    35.6800        42
    35.7400        22
    35.8000        34
    35.8600        34
    35.9200        22
    35.9800        22
    36.0400        24
    36.1000        36
    36.1600        34
    36.2200        36
    36.2800        24
    36.3400        28
    36.4000        32
    36.4600        22
    36.5200        44
    36.5800        30
    36.6400        22
    36.7000        30
    36.7600        40
    36.8200        34
    36.8800        26
    36.9400        38
    37.0000        38
    37.0600        36
    37.1200        24
    37.1800        24
    37.2400        26
    37.3000        22
    37.3600        34
    37.4200        34
    37.4800        40
    37.5400        28
    37.6000        38
    37.6600        44
    37.7200        42
    37.7800        66
    37.8400        76
    37.9000        70
    37.9600        40
    38.0200        40
    38.0800        34
    38.1400        34
    38.2000        30
    38.2600        24
    38.3200        40
    38.3800        32
    38.4400        34
    38.5000        30
    38.5600        42
    38.6200        38
    38.6800        36
    38.7400        50
    38.8000        68
    38.8600        84
    38.9200       140
    38.9800       196
    39.0400       188
    39.1000       128
    39.1600       104
    39.2200        60
    39.2800        58
    39.3400        42
    39.4000        86
    39.4600        80
    39.5200        58
    39.5800        50
    39.6400        34
    39.7000        36
    39.7600        30
    39.8200        38
    39.8800        28
    39.9400        24
    40.0000        24
    40.0600        42
    40.1200        46
    40.1800        28
    40.2400        38
    40.3000        38
    40.3600        32
    40.4200        30
    40.4800        36
    40.5400        28
    40.6000        34
    40.6600        30
    40.7200        46
    40.7800        74
    40.8400        82
    40.9000        76
    40.9600        58
    41.0200        46
    41.0800        46
    41.1400        26
    41.2000        42
    41.2600        32
    41.3200        32
    41.3800        34
    41.4400        34
    41.5000        26
    41.5600        54
    41.6200        38
    41.6800        52
    41.7400        82
    41.8000       144
    41.8600       192
    41.9200       172
    41.9800       250
    42.0400       298
    42.1000       276
    42.1600       202
    42.2200       136
    42.2800        62
    42.3400        62
    42.4000        38
    42.4600        36
    42.5200        32
    42.5800        34
    42.6400        38
    42.7000        32
    42.7600        32
    42.8200        26
    42.8800        54
    42.9400        26
    43.0000        34
    43.0600        32
    43.1200        28
    43.1800        44
    43.2400        38
    43.3000        32
    43.3600        42
    43.4200        54
    43.4800       100
    43.5400       120
    43.6000        98
    43.6600        74
    43.7200        38
    43.7800        42
    43.8400        46
    43.9000        30
    43.9600        34
    44.0200        28
    44.0800        24
    44.1400        28
    44.2000        34
    44.2600        36
    44.3200        36
    44.3800        30
    44.4400        40
    44.5000        44
    44.5600        46
    44.6200        54
    44.6800       120
    44.7400       166
    44.8000       232
    44.8600       184
    44.9200       200
    44.9800       166
    45.0400       108
    45.1000        84
    45.1600        56
    45.2200        40
    45.2800        36
    45.3400        34
    45.4000        32
    45.4600        30
    45.5200        34
    45.5800        24
    45.6400        38
    45.7000        48
    45.7600        28
    45.8200        24
    45.8800        42
    45.9400        30
    46.0000        32
    46.0600        36
    46.1200        24
    46.1800        24
    46.2400        34
    46.3000        28
    46.3600        36
    46.4200        34
    46.4800        32
    46.5400        24
    46.6000        38
    46.6600        34
    46.7200        48
    46.7800        50
    46.8400        48
    46.9000        44
    46.9600        44
    47.0200        86
    47.0800       226
    47.1400       286
    47.2000       288
    47.2600       338
    47.3200       398
    47.3800       654
    47.4400       434
    47.5000       466
    47.5600       206
    47.6200       110
    47.6800       100
    47.7400       110
    47.8000       410
    47.8600       380
    47.9200       282
    47.9800       206
    48.0400        78
    48.1000        54
    48.1600        36
    48.2200        32
    48.2800        36
    48.3400        40
    48.4000        50
    48.4600        42
    48.5200        32
    48.5800        36
    48.6400        30
    48.7000        34
    48.7600        28
    48.8200        32
    48.8800        42
    48.9400        30
    49.0000        30
    49.0600        28
    49.1200        32
    49.1800        40
    49.2400        36
    49.3000        26
    49.3600        28
    49.4200        24
    49.4800        36
    49.5400        42
    49.6000        82
    49.6600        56
    49.7200        74
    49.7800        58
    49.8400        44
    49.9000        58
    49.9600        98
    50.0200       146
    50.0800        94
    50.1400        98
    50.2000        58
    50.2600        46
    50.3200        34
    50.3800        40
    50.4400        28
    50.5000        48
    50.5600        38
    50.6200        28
    50.6800        30
    50.7400        40
    50.8000        28
    50.8600        28
    50.9200        36
    50.9800        32
    51.0400        40
    51.1000        48
    51.1600        32
    51.2200        40
    51.2800        32
    51.3400        34
    51.4000        32
    51.4600        42
    51.5200        22
    51.5800        28
    51.6400        30
    51.7000        30
    51.7600        32
    51.8200        26
    51.8800        34
    51.9400        50
    52.0000       116
    52.0600       132
    52.1200        86
    52.1800       118
    52.2400       108
    52.3000        76
    52.3600        58
    52.4200        50
    52.4800        44
    52.5400        28
    52.6000        32
    52.6600        42
    52.7200        46
    52.7800        24
    52.8400        30
    52.9000        36
    52.9600        38
    53.0200        28
    53.0800        30
    53.1400        34
    53.2000        40
    53.2600        50
    53.3200        36
    53.3800        62
    53.4400       102
    53.5000       124
    53.5600       114
    53.6200        98
    53.6800        64
    53.7400        48
    53.8000        50
    53.8600        28
    53.9200        34
    53.9800        34
    54.0400        28
    54.1000        28
    54.1600        30
    54.2200        34
    54.2800        46
    54.3400        34
    54.4000        34
    54.4600        68
    54.5200       106
    54.5800       126
    54.6400        98
    54.7000        82
    54.7600        64
    54.8200        50
    54.8800        32
    54.9400        28
    55.0000        32
    55.0600        32
    55.1200        24
    55.1800        30
    55.2400        30
    55.3000        34
    55.3600        26
    55.4200        30
    55.4800        26
    55.5400        34
    55.6000        30
    55.6600        20
    55.7200        26
    55.7800        32
    55.8400        30
    55.9000        34
    55.9600        34
    56.0200        30
    56.0800        38
    56.1400        24
    56.2000        28
    56.2600        42
    56.3200        38
    56.3800        36
    56.4400        40
    56.5000        48
    56.5600        96
    56.6200       102
    56.6800        90
    56.7400        92
    56.8000        64
    56.8600        40
    56.9200        34
    56.9800        42
    57.0400        26
    57.1000        52
    57.1600        72
    57.2200        92
    57.2800       122
    57.3400        76
    57.4000        68
    57.4600        52
    57.5200        28
    57.5800        26
    57.6400        24
    57.7000        28
    57.7600        30
    57.8200        34
    57.8800        32
    57.9400        54
    58.0000        46
    58.0600        52
    58.1200        46
    58.1800        28
    58.2400        24
    58.3000        36
    58.3600        28
    58.4200        44
    58.4800        32
    58.5400        44
    58.6000        28
    58.6600        38
    58.7200        42
    58.7800        34
    58.8400        50
    58.9000       102
    58.9600       170
    59.0200       242
    59.0800       128
    59.1400       144
    59.2000       124
    59.2600        58
    59.3200        48
    59.3800        54
    59.4400        34
    59.5000        38
    59.5600        50
    59.6200        42
    59.6800        18
    59.7400        46
    59.8000        28
    59.8600        22
    59.9200        28
    59.9800        28
    60.0400        18
    60.1000        42
    60.1600        30
    60.2200        42
    60.2800        46
    60.3400        30
    60.4000        34
    60.4600        28
    60.5200        38
    60.5800        30
    60.6400        30
    60.7000        28
    60.7600        52
    60.8200        52
    60.8800        48
    60.9400        44
    61.0000        94
    61.0600        86
    61.1200       148
    61.1800       108
    61.2400        86
    61.3000        70
    61.3600        48
    61.4200        46
    61.4800        26
    61.5400        22
    61.6000        32
    61.6600        26
    61.7200        28
    61.7800        34
    61.8400        20
    61.9000        32
    61.9600        30
    62.0200        26
    62.0800        30
    62.1400        28
    62.2000        36
    62.2600        32
    62.3200        28
    62.3800        32
    62.4400        36
    62.5000        48
    62.5600        68
    62.6200        62
    62.6800        50
    62.7400        48
    62.8000        46
    62.8600        28
    62.9200        36
    62.9800        42
    63.0400        64
    63.1000        58
    63.1600        76
    63.2200        78
    63.2800        92
    63.3400       128
    63.4000       198
    63.4600       182
    63.5200       126
    63.5800       228
    63.6400       132
    63.7000        74
    63.7600        76
    63.8200        70
    63.8800        38
    63.9400        34
    64.0000        26
    64.0600        38
    64.1200        16
    64.1800        34
    64.2400        30
    64.3000        30
    64.3600        28
    64.4200        30
    64.4800        24
    64.5400        26
    64.6000        26
    64.6600        26
    64.7200        30
    64.7800        28
    64.8400        28
    64.9000        40
    64.9600        30
    65.0000        36