File: sl1/usgs/library06/DESCRIPT/new_xrd_results_to_be_added/Rhonda_Driscoll_xrd_runs/GDS681---Magnesite.txt
/////////////////////////////////////////////////////////////////////////////////
/// Profile Data Ascii Dump (XRD)                                             ///
/////////////////////////////////////////////////////////////////////////////////

  Group     : Swayze
  Data      : GDS681
  File Name : GDS681.RAW

# Profile Datafile
          comment             = Magnesite
          date & time         = 08-03-12 07:31:19

# Measurement Condition
    X-ray tube
          target              = Cu
          voltage             = 40.0 (kV)
          current             = 30.0 (mA)
    Slits
          divergence slit     = 2.00000 (deg)
          scatter slit        = 2.00000 (deg)
          receiving slit      = 0.15000 (mm)
    Scanning
          drive axis          = Theta-2Theta
          scan range          =    4.000 -   65.000
          scan mode           = Continuous Scan
          scan speed          =   2.0000 (deg/min)
          sampling pitch      =   0.0200 (deg)
          preset time         =   0.60 (sec)

# Data      [ Total No. = 3051 ]
  <2Theta>   <   I   >
     4.0000       236
     4.0600       232
     4.1200       258
     4.1800       202
     4.2400       228
     4.3000       218
     4.3600       244
     4.4200       238
     4.4800       214
     4.5400       212
     4.6000       272
     4.6600       220
     4.7200       216
     4.7800       212
     4.8400       200
     4.9000       202
     4.9600       214
     5.0200       212
     5.0800       202
     5.1400       208
     5.2000       202
     5.2600       210
     5.3200       200
     5.3800       178
     5.4400       194
     5.5000       224
     5.5600       210
     5.6200       202
     5.6800       192
     5.7400       206
     5.8000       232
     5.8600       180
     5.9200       184
     5.9800       200
     6.0400       232
     6.1000       186
     6.1600       168
     6.2200       202
     6.2800       190
     6.3400       210
     6.4000       164
     6.4600       192
     6.5200       208
     6.5800       168
     6.6400       192
     6.7000       188
     6.7600       190
     6.8200       170
     6.8800       166
     6.9400       168
     7.0000       158
     7.0600       158
     7.1200       198
     7.1800       154
     7.2400       170
     7.3000       164
     7.3600       172
     7.4200       156
     7.4800       144
     7.5400       158
     7.6000       142
     7.6600       150
     7.7200       128
     7.7800       124
     7.8400       144
     7.9000       126
     7.9600       144
     8.0200       150
     8.0800       146
     8.1400       126
     8.2000       102
     8.2600       148
     8.3200       154
     8.3800       156
     8.4400       148
     8.5000       166
     8.5600       128
     8.6200       122
     8.6800       138
     8.7400       144
     8.8000       146
     8.8600       134
     8.9200       138
     8.9800       130
     9.0400       144
     9.1000       156
     9.1600       156
     9.2200       146
     9.2800       124
     9.3400       152
     9.4000       118
     9.4600       114
     9.5200       122
     9.5800       110
     9.6400       124
     9.7000       126
     9.7600       108
     9.8200       116
     9.8800       120
     9.9400       120
    10.0000       104
    10.0600       130
    10.1200       114
    10.1800       118
    10.2400        98
    10.3000       104
    10.3600       104
    10.4200       110
    10.4800       120
    10.5400       120
    10.6000        96
    10.6600       124
    10.7200       110
    10.7800        96
    10.8400       102
    10.9000       110
    10.9600       124
    11.0200       106
    11.0800        96
    11.1400        96
    11.2000        96
    11.2600       106
    11.3200        98
    11.3800       104
    11.4400        94
    11.5000       104
    11.5600       102
    11.6200        98
    11.6800       100
    11.7400        90
    11.8000       110
    11.8600        72
    11.9200       106
    11.9800       108
    12.0400       104
    12.1000       112
    12.1600        90
    12.2200        96
    12.2800       112
    12.3400        86
    12.4000       100
    12.4600       116
    12.5200        96
    12.5800        94
    12.6400        80
    12.7000        58
    12.7600        76
    12.8200        84
    12.8800        86
    12.9400        78
    13.0000        84
    13.0600        86
    13.1200        82
    13.1800        98
    13.2400        70
    13.3000        80
    13.3600        76
    13.4200        88
    13.4800        90
    13.5400       100
    13.6000        76
    13.6600        94
    13.7200        72
    13.7800        58
    13.8400        82
    13.9000        86
    13.9600        86
    14.0200        90
    14.0800        86
    14.1400        76
    14.2000        92
    14.2600        64
    14.3200       110
    14.3800        88
    14.4400        82
    14.5000        84
    14.5600        74
    14.6200        98
    14.6800        82
    14.7400        72
    14.8000        70
    14.8600        68
    14.9200        76
    14.9800        88
    15.0400        76
    15.1000        70
    15.1600        74
    15.2200        92
    15.2800        84
    15.3400        76
    15.4000        76
    15.4600        68
    15.5200        74
    15.5800        76
    15.6400        98
    15.7000        86
    15.7600        86
    15.8200        88
    15.8800        80
    15.9400        84
    16.0000        92
    16.0600        92
    16.1200       104
    16.1800        78
    16.2400        86
    16.3000        70
    16.3600        76
    16.4200        86
    16.4800        96
    16.5400        82
    16.6000       106
    16.6600        82
    16.7200        78
    16.7800        78
    16.8400        90
    16.9000        76
    16.9600        84
    17.0200       100
    17.0800       102
    17.1400        86
    17.2000        96
    17.2600        96
    17.3200        78
    17.3800        78
    17.4400       106
    17.5000        92
    17.5600        98
    17.6200       102
    17.6800        86
    17.7400       108
    17.8000       108
    17.8600        92
    17.9200        98
    17.9800        96
    18.0400        88
    18.1000       106
    18.1600        94
    18.2200       122
    18.2800       104
    18.3400       104
    18.4000       100
    18.4600       104
    18.5200       108
    18.5800        96
    18.6400       126
    18.7000       116
    18.7600       114
    18.8200       106
    18.8800       116
    18.9400       144
    19.0000       108
    19.0600       146
    19.1200       128
    19.1800       132
    19.2400       134
    19.3000       146
    19.3600       116
    19.4200       158
    19.4800       158
    19.5400       156
    19.6000       164
    19.6600       174
    19.7200       146
    19.7800       168
    19.8400       150
    19.9000       168
    19.9600       136
    20.0200       158
    20.0800       158
    20.1400       186
    20.2000       144
    20.2600       156
    20.3200       152
    20.3800       166
    20.4400       158
    20.5000       160
    20.5600       140
    20.6200       156
    20.6800       144
    20.7400       158
    20.8000       150
    20.8600       158
    20.9200       166
    20.9800       178
    21.0400       174
    21.1000       156
    21.1600       166
    21.2200       162
    21.2800       184
    21.3400       182
    21.4000       172
    21.4600       164
    21.5200       180
    21.5800       166
    21.6400       164
    21.7000       174
    21.7600       148
    21.8200       172
    21.8800       194
    21.9400       170
    22.0000       170
    22.0600       160
    22.1200       164
    22.1800       174
    22.2400       172
    22.3000       172
    22.3600       144
    22.4200       146
    22.4800       144
    22.5400       206
    22.6000       170
    22.6600       170
    22.7200       162
    22.7800       164
    22.8400       150
    22.9000       160
    22.9600       176
    23.0200       146
    23.0800       136
    23.1400       164
    23.2000       172
    23.2600       150
    23.3200       170
    23.3800       132
    23.4400       172
    23.5000       144
    23.5600       158
    23.6200       138
    23.6800       146
    23.7400       144
    23.8000       138
    23.8600       134
    23.9200       134
    23.9800       154
    24.0400       144
    24.1000       152
    24.1600       124
    24.2200       158
    24.2800       144
    24.3400       152
    24.4000       122
    24.4600       108
    24.5200       152
    24.5800       130
    24.6400       120
    24.7000       150
    24.7600       130
    24.8200       138
    24.8800       136
    24.9400       136
    25.0000       154
    25.0600       120
    25.1200       122
    25.1800       140
    25.2400       104
    25.3000       112
    25.3600        98
    25.4200       114
    25.4800       110
    25.5400       112
    25.6000       106
    25.6600       106
    25.7200       114
    25.7800       118
    25.8400       110
    25.9000       108
    25.9600       122
    26.0200       110
    26.0800       118
    26.1400       126
    26.2000       110
    26.2600       100
    26.3200        94
    26.3800       110
    26.4400       112
    26.5000       100
    26.5600       110
    26.6200       108
    26.6800        96
    26.7400       106
    26.8000       110
    26.8600       100
    26.9200        98
    26.9800       104
    27.0400       124
    27.1000       102
    27.1600       116
    27.2200       104
    27.2800        92
    27.3400       104
    27.4000       110
    27.4600        86
    27.5200        92
    27.5800       122
    27.6400       108
    27.7000       112
    27.7600        98
    27.8200        94
    27.8800        98
    27.9400       176
    28.0000       154
    28.0600       118
    28.1200       126
    28.1800       116
    28.2400        90
    28.3000        92
    28.3600        86
    28.4200        88
    28.4800       102
    28.5400        78
    28.6000        82
    28.6600       110
    28.7200       100
    28.7800        96
    28.8400        82
    28.9000        72
    28.9600        78
    29.0200        96
    29.0800        82
    29.1400        90
    29.2000        90
    29.2600       106
    29.3200        94
    29.3800        88
    29.4400        74
    29.5000        74
    29.5600        80
    29.6200        84
    29.6800        76
    29.7400        82
    29.8000        84
    29.8600        74
    29.9200        72
    29.9800        74
    30.0400        54
    30.1000        86
    30.1600        72
    30.2200        98
    30.2800        90
    30.3400        76
    30.4000        80
    30.4600        86
    30.5200        86
    30.5800        82
    30.6400        84
    30.7000        84
    30.7600        78
    30.8200        78
    30.8800        86
    30.9400        96
    31.0000        84
    31.0600        78
    31.1200        92
    31.1800        90
    31.2400        84
    31.3000        90
    31.3600        86
    31.4200        98
    31.4800        98
    31.5400        88
    31.6000       100
    31.6600       102
    31.7200       108
    31.7800        92
    31.8400        92
    31.9000       114
    31.9600       118
    32.0200       144
    32.0800       208
    32.1400       270
    32.2000       420
    32.2600       558
    32.3200      1040
    32.3800      1760
    32.4400      2846
    32.5000      3602
    32.5600      2948
    32.6200      1616
    32.6800       692
    32.7400       268
    32.8000       222
    32.8600       160
    32.9200       124
    32.9800       110
    33.0400       108
    33.1000        76
    33.1600        92
    33.2200       110
    33.2800        96
    33.3400        94
    33.4000        88
    33.4600        66
    33.5200        80
    33.5800        84
    33.6400        60
    33.7000        86
    33.7600        84
    33.8200        90
    33.8800        88
    33.9400        96
    34.0000        86
    34.0600       102
    34.1200       130
    34.1800        94
    34.2400        80
    34.3000        90
    34.3600        84
    34.4200       102
    34.4800        90
    34.5400       108
    34.6000        98
    34.6600        78
    34.7200        94
    34.7800        82
    34.8400        80
    34.9000        98
    34.9600        98
    35.0200       114
    35.0800        94
    35.1400        86
    35.2000       100
    35.2600       126
    35.3200       108
    35.3800       118
    35.4400       134
    35.5000       180
    35.5600       248
    35.6200       386
    35.6800       602
    35.7400       642
    35.8000       396
    35.8600       268
    35.9200       156
    35.9800       110
    36.0400       118
    36.1000       102
    36.1600       104
    36.2200        60
    36.2800        68
    36.3400        88
    36.4000        98
    36.4600        86
    36.5200        74
    36.5800        74
    36.6400        70
    36.7000        86
    36.7600        78
    36.8200        66
    36.8800        92
    36.9400        84
    37.0000        96
    37.0600        70
    37.1200        62
    37.1800        68
    37.2400        80
    37.3000        64
    37.3600        72
    37.4200        72
    37.4800        58
    37.5400        74
    37.6000        64
    37.6600        64
    37.7200        60
    37.7800        74
    37.8400        66
    37.9000        74
    37.9600        68
    38.0200        60
    38.0800        70
    38.1400        74
    38.2000        66
    38.2600        72
    38.3200        92
    38.3800        86
    38.4400        86
    38.5000       108
    38.5600       134
    38.6200       210
    38.6800       262
    38.7400       216
    38.8000       178
    38.8600       128
    38.9200        84
    38.9800        70
    39.0400        82
    39.1000        62
    39.1600        66
    39.2200        54
    39.2800        72
    39.3400        72
    39.4000        64
    39.4600        78
    39.5200        58
    39.5800        64
    39.6400        68
    39.7000        50
    39.7600        76
    39.8200        64
    39.8800        86
    39.9400        66
    40.0000        52
    40.0600        64
    40.1200        58
    40.1800        52
    40.2400        80
    40.3000        66
    40.3600        54
    40.4200        70
    40.4800        48
    40.5400        62
    40.6000        60
    40.6600        58
    40.7200        60
    40.7800        84
    40.8400        80
    40.9000        56
    40.9600        52
    41.0200        78
    41.0800        50
    41.1400        54
    41.2000        64
    41.2600        60
    41.3200        62
    41.3800        74
    41.4400        70
    41.5000        70
    41.5600        72
    41.6200        56
    41.6800        74
    41.7400        74
    41.8000        78
    41.8600        52
    41.9200        74
    41.9800        66
    42.0400        62
    42.1000        78
    42.1600        66
    42.2200        88
    42.2800        90
    42.3400        84
    42.4000       124
    42.4600       148
    42.5200       228
    42.5800       282
    42.6400       476
    42.7000       794
    42.7600      1382
    42.8200      1852
    42.8800      1764
    42.9400      1200
    43.0000       678
    43.0600       318
    43.1200       188
    43.1800       116
    43.2400       110
    43.3000        78
    43.3600        78
    43.4200        82
    43.4800        64
    43.5400        74
    43.6000        62
    43.6600        62
    43.7200        54
    43.7800        74
    43.8400        66
    43.9000        60
    43.9600        68
    44.0200        66
    44.0800        50
    44.1400        62
    44.2000        54
    44.2600        60
    44.3200        60
    44.3800        62
    44.4400        68
    44.5000        48
    44.5600        58
    44.6200        44
    44.6800        54
    44.7400        66
    44.8000        38
    44.8600        60
    44.9200        52
    44.9800        52
    45.0400        60
    45.1000        46
    45.1600        54
    45.2200        62
    45.2800        54
    45.3400        70
    45.4000        50
    45.4600        52
    45.5200        60
    45.5800        48
    45.6400        68
    45.7000        50
    45.7600        68
    45.8200        62
    45.8800        58
    45.9400        48
    46.0000        64
    46.0600        56
    46.1200        62
    46.1800        64
    46.2400        70
    46.3000        80
    46.3600        96
    46.4200       122
    46.4800       146
    46.5400       248
    46.6000       366
    46.6600       568
    46.7200       460
    46.7800       382
    46.8400       258
    46.9000       148
    46.9600       118
    47.0200        76
    47.0800        50
    47.1400        74
    47.2000        64
    47.2600        60
    47.3200        78
    47.3800        48
    47.4400        58
    47.5000        58
    47.5600        52
    47.6200        52
    47.6800        56
    47.7400        52
    47.8000        48
    47.8600        62
    47.9200        60
    47.9800        62
    48.0400        64
    48.1000        46
    48.1600        46
    48.2200        50
    48.2800        56
    48.3400        66
    48.4000        58
    48.4600        50
    48.5200        44
    48.5800        54
    48.6400        30
    48.7000        54
    48.7600        54
    48.8200        56
    48.8800        60
    48.9400        56
    49.0000        66
    49.0600        58
    49.1200        50
    49.1800        46
    49.2400        46
    49.3000        42
    49.3600        48
    49.4200        70
    49.4800        42
    49.5400        60
    49.6000        48
    49.6600        58
    49.7200        60
    49.7800        62
    49.8400        54
    49.9000        58
    49.9600        56
    50.0200        48
    50.0800        54
    50.1400        46
    50.2000        56
    50.2600        52
    50.3200        48
    50.3800        54
    50.4400        50
    50.5000        54
    50.5600        54
    50.6200        52
    50.6800        50
    50.7400        50
    50.8000        56
    50.8600        58
    50.9200        50
    50.9800        56
    51.0400        64
    51.1000        76
    51.1600        74
    51.2200        98
    51.2800       116
    51.3400       132
    51.4000       178
    51.4600       234
    51.5200       186
    51.5800       152
    51.6400       120
    51.7000       104
    51.7600        70
    51.8200        72
    51.8800        70
    51.9400        50
    52.0000        56
    52.0600        52
    52.1200        62
    52.1800        64
    52.2400        74
    52.3000        66
    52.3600        46
    52.4200        74
    52.4800        48
    52.5400        74
    52.6000        66
    52.6600        64
    52.7200        62
    52.7800        62
    52.8400        64
    52.9000        58
    52.9600        62
    53.0200        64
    53.0800        78
    53.1400        76
    53.2000        76
    53.2600        86
    53.3200       112
    53.3800       128
    53.4400       182
    53.5000       278
    53.5600       416
    53.6200       730
    53.6800      1166
    53.7400      1354
    53.8000      1194
    53.8600       836
    53.9200       602
    53.9800       312
    54.0400       182
    54.1000       116
    54.1600        94
    54.2200        76
    54.2800        76
    54.3400        60
    54.4000        64
    54.4600        62
    54.5200        66
    54.5800        56
    54.6400        60
    54.7000        86
    54.7600        68
    54.8200        56
    54.8800        66
    54.9400        52
    55.0000        58
    55.0600        58
    55.1200        72
    55.1800        62
    55.2400        72
    55.3000        52
    55.3600        56
    55.4200        58
    55.4800        48
    55.5400        64
    55.6000        54
    55.6600        48
    55.7200        60
    55.7800        52
    55.8400        50
    55.9000        60
    55.9600        48
    56.0200        56
    56.0800        46
    56.1400        58
    56.2000        34
    56.2600        52
    56.3200        44
    56.3800        54
    56.4400        42
    56.5000        40
    56.5600        54
    56.6200        50
    56.6800        46
    56.7400        54
    56.8000        42
    56.8600        40
    56.9200        54
    56.9800        54
    57.0400        60
    57.1000        54
    57.1600        64
    57.2200        50
    57.2800        56
    57.3400        50
    57.4000        54
    57.4600        46
    57.5200        48
    57.5800        60
    57.6400        42
    57.7000        66
    57.7600        52
    57.8200        52
    57.8800        56
    57.9400        56
    58.0000        50
    58.0600        36
    58.1200        46
    58.1800        44
    58.2400        62
    58.3000        52
    58.3600        58
    58.4200        52
    58.4800        44
    58.5400        48
    58.6000        46
    58.6600        58
    58.7200        64
    58.7800        68
    58.8400        46
    58.9000        52
    58.9600        54
    59.0200        60
    59.0800        56
    59.1400        52
    59.2000        52
    59.2600        64
    59.3200        50
    59.3800        60
    59.4400        48
    59.5000        58
    59.5600        52
    59.6200        62
    59.6800        66
    59.7400        70
    59.8000        76
    59.8600        58
    59.9200        64
    59.9800        52
    60.0400        46
    60.1000        68
    60.1600        62
    60.2200        64
    60.2800        56
    60.3400        68
    60.4000        64
    60.4600        72
    60.5200        78
    60.5800        70
    60.6400        64
    60.7000        70
    60.7600        92
    60.8200        84
    60.8800        82
    60.9400        74
    61.0000        88
    61.0600       138
    61.1200       144
    61.1800       200
    61.2400       218
    61.3000       188
    61.3600       192
    61.4200       118
    61.4800       106
    61.5400        78
    61.6000        58
    61.6600        60
    61.7200        68
    61.7800        72
    61.8400        72
    61.9000        74
    61.9600        86
    62.0200       108
    62.0800       118
    62.1400       162
    62.2000       214
    62.2600       280
    62.3200       242
    62.3800       192
    62.4400       160
    62.5000       114
    62.5600        84
    62.6200        58
    62.6800        56
    62.7400        64
    62.8000        64
    62.8600        58
    62.9200        54
    62.9800        58
    63.0400        72
    63.1000        58
    63.1600        62
    63.2200        48
    63.2800        56
    63.3400        34
    63.4000        48
    63.4600        58
    63.5200        66
    63.5800        48
    63.6400        48
    63.7000        38
    63.7600        48
    63.8200        62
    63.8800        66
    63.9400        56
    64.0000        54
    64.0600        46
    64.1200        54
    64.1800        54
    64.2400        58
    64.3000        52
    64.3600        46
    64.4200        56
    64.4800        60
    64.5400        66
    64.6000        44
    64.6600        54
    64.7200        58
    64.7800        46
    64.8400        50
    64.9000        58
    64.9600        50
    65.0000        60