File: sl1/usgs/library06/DESCRIPT/new_xrd_results_to_be_added/Rhonda_Driscoll_xrd_runs/GDS68---C-lamp-black.txt
/////////////////////////////////////////////////////////////////////////////////
/// Profile Data Ascii Dump (XRD)                                             ///
/////////////////////////////////////////////////////////////////////////////////

  Group     : Swayze
  Data      : GDS68
  File Name : GDS68.RAW

# Profile Datafile
          comment             = C lamp black
          date & time         = 08-03-14 07:57:50

# Measurement Condition
    X-ray tube
          target              = Cu
          voltage             = 40.0 (kV)
          current             = 30.0 (mA)
    Slits
          divergence slit     = 2.00000 (deg)
          scatter slit        = 2.00000 (deg)
          receiving slit      = 0.15000 (mm)
    Scanning
          drive axis          = Theta-2Theta
          scan range          =    4.000 -   65.000
          scan mode           = Continuous Scan
          scan speed          =   2.0000 (deg/min)
          sampling pitch      =   0.0200 (deg)
          preset time         =   0.60 (sec)

# Data      [ Total No. = 3051 ]
  <2Theta>   <   I   >
     4.0000       506
     4.0600       482
     4.1200       498
     4.1800       500
     4.2400       506
     4.3000       482
     4.3600       482
     4.4200       514
     4.4800       490
     4.5400       482
     4.6000       450
     4.6600       434
     4.7200       452
     4.7800       468
     4.8400       446
     4.9000       492
     4.9600       490
     5.0200       448
     5.0800       418
     5.1400       428
     5.2000       430
     5.2600       468
     5.3200       470
     5.3800       432
     5.4400       430
     5.5000       410
     5.5600       426
     5.6200       424
     5.6800       424
     5.7400       432
     5.8000       416
     5.8600       428
     5.9200       408
     5.9800       376
     6.0400       426
     6.1000       434
     6.1600       398
     6.2200       412
     6.2800       416
     6.3400       414
     6.4000       374
     6.4600       374
     6.5200       408
     6.5800       394
     6.6400       424
     6.7000       376
     6.7600       380
     6.8200       376
     6.8800       362
     6.9400       350
     7.0000       336
     7.0600       350
     7.1200       376
     7.1800       344
     7.2400       342
     7.3000       342
     7.3600       358
     7.4200       384
     7.4800       336
     7.5400       336
     7.6000       374
     7.6600       312
     7.7200       342
     7.7800       330
     7.8400       316
     7.9000       320
     7.9600       328
     8.0200       318
     8.0800       338
     8.1400       304
     8.2000       312
     8.2600       344
     8.3200       312
     8.3800       334
     8.4400       342
     8.5000       352
     8.5600       354
     8.6200       298
     8.6800       348
     8.7400       296
     8.8000       294
     8.8600       350
     8.9200       296
     8.9800       324
     9.0400       320
     9.1000       334
     9.1600       330
     9.2200       298
     9.2800       324
     9.3400       304
     9.4000       316
     9.4600       278
     9.5200       316
     9.5800       302
     9.6400       308
     9.7000       314
     9.7600       296
     9.8200       278
     9.8800       296
     9.9400       286
    10.0000       270
    10.0600       326
    10.1200       292
    10.1800       302
    10.2400       308
    10.3000       286
    10.3600       292
    10.4200       278
    10.4800       308
    10.5400       278
    10.6000       308
    10.6600       306
    10.7200       290
    10.7800       272
    10.8400       284
    10.9000       296
    10.9600       314
    11.0200       276
    11.0800       266
    11.1400       282
    11.2000       260
    11.2600       288
    11.3200       272
    11.3800       308
    11.4400       284
    11.5000       280
    11.5600       226
    11.6200       276
    11.6800       264
    11.7400       260
    11.8000       266
    11.8600       256
    11.9200       278
    11.9800       280
    12.0400       280
    12.1000       246
    12.1600       274
    12.2200       272
    12.2800       266
    12.3400       266
    12.4000       250
    12.4600       266
    12.5200       268
    12.5800       252
    12.6400       254
    12.7000       250
    12.7600       248
    12.8200       240
    12.8800       238
    12.9400       260
    13.0000       256
    13.0600       270
    13.1200       276
    13.1800       258
    13.2400       260
    13.3000       256
    13.3600       264
    13.4200       256
    13.4800       270
    13.5400       268
    13.6000       242
    13.6600       262
    13.7200       246
    13.7800       270
    13.8400       284
    13.9000       254
    13.9600       236
    14.0200       292
    14.0800       244
    14.1400       272
    14.2000       282
    14.2600       246
    14.3200       256
    14.3800       272
    14.4400       288
    14.5000       278
    14.5600       256
    14.6200       254
    14.6800       288
    14.7400       258
    14.8000       292
    14.8600       272
    14.9200       242
    14.9800       234
    15.0400       256
    15.1000       268
    15.1600       260
    15.2200       300
    15.2800       278
    15.3400       268
    15.4000       254
    15.4600       290
    15.5200       286
    15.5800       268
    15.6400       280
    15.7000       272
    15.7600       270
    15.8200       296
    15.8800       288
    15.9400       304
    16.0000       256
    16.0600       294
    16.1200       292
    16.1800       296
    16.2400       280
    16.3000       280
    16.3600       304
    16.4200       316
    16.4800       292
    16.5400       294
    16.6000       272
    16.6600       278
    16.7200       270
    16.7800       332
    16.8400       256
    16.9000       300
    16.9600       300
    17.0200       274
    17.0800       318
    17.1400       284
    17.2000       310
    17.2600       288
    17.3200       336
    17.3800       340
    17.4400       322
    17.5000       350
    17.5600       292
    17.6200       292
    17.6800       294
    17.7400       336
    17.8000       296
    17.8600       326
    17.9200       320
    17.9800       360
    18.0400       358
    18.1000       310
    18.1600       322
    18.2200       312
    18.2800       354
    18.3400       346
    18.4000       340
    18.4600       338
    18.5200       350
    18.5800       322
    18.6400       376
    18.7000       334
    18.7600       330
    18.8200       346
    18.8800       380
    18.9400       384
    19.0000       352
    19.0600       364
    19.1200       358
    19.1800       388
    19.2400       364
    19.3000       362
    19.3600       416
    19.4200       358
    19.4800       410
    19.5400       388
    19.6000       420
    19.6600       404
    19.7200       402
    19.7800       452
    19.8400       380
    19.9000       416
    19.9600       392
    20.0200       442
    20.0800       454
    20.1400       438
    20.2000       458
    20.2600       472
    20.3200       442
    20.3800       434
    20.4400       476
    20.5000       488
    20.5600       474
    20.6200       506
    20.6800       478
    20.7400       462
    20.8000       510
    20.8600       508
    20.9200       530
    20.9800       470
    21.0400       528
    21.1000       506
    21.1600       486
    21.2200       510
    21.2800       592
    21.3400       528
    21.4000       542
    21.4600       584
    21.5200       554
    21.5800       580
    21.6400       590
    21.7000       598
    21.7600       590
    21.8200       578
    21.8800       596
    21.9400       638
    22.0000       596
    22.0600       638
    22.1200       668
    22.1800       630
    22.2400       652
    22.3000       670
    22.3600       624
    22.4200       724
    22.4800       682
    22.5400       720
    22.6000       714
    22.6600       756
    22.7200       754
    22.7800       756
    22.8400       760
    22.9000       798
    22.9600       758
    23.0200       740
    23.0800       794
    23.1400       756
    23.2000       814
    23.2600       874
    23.3200       822
    23.3800       818
    23.4400       806
    23.5000       838
    23.5600       908
    23.6200       840
    23.6800       894
    23.7400       918
    23.8000       910
    23.8600       892
    23.9200       904
    23.9800       924
    24.0400       984
    24.1000       894
    24.1600       890
    24.2200       984
    24.2800       900
    24.3400       972
    24.4000       962
    24.4600       982
    24.5200       892
    24.5800       966
    24.6400       954
    24.7000       928
    24.7600       958
    24.8200      1036
    24.8800       968
    24.9400       990
    25.0000      1006
    25.0600       964
    25.1200       974
    25.1800       946
    25.2400       930
    25.3000       948
    25.3600       926
    25.4200       938
    25.4800       882
    25.5400       938
    25.6000       934
    25.6600       846
    25.7200       878
    25.7800       830
    25.8400       920
    25.9000       852
    25.9600       860
    26.0200       790
    26.0800       846
    26.1400       776
    26.2000       734
    26.2600       744
    26.3200       782
    26.3800       706
    26.4400       658
    26.5000       722
    26.5600       732
    26.6200       670
    26.6800       662
    26.7400       624
    26.8000       592
    26.8600       618
    26.9200       584
    26.9800       622
    27.0400       526
    27.1000       564
    27.1600       518
    27.2200       502
    27.2800       542
    27.3400       492
    27.4000       502
    27.4600       446
    27.5200       470
    27.5800       482
    27.6400       446
    27.7000       440
    27.7600       434
    27.8200       354
    27.8800       408
    27.9400       380
    28.0000       392
    28.0600       386
    28.1200       402
    28.1800       364
    28.2400       324
    28.3000       336
    28.3600       294
    28.4200       344
    28.4800       320
    28.5400       294
    28.6000       304
    28.6600       312
    28.7200       284
    28.7800       280
    28.8400       322
    28.9000       234
    28.9600       252
    29.0200       276
    29.0800       252
    29.1400       260
    29.2000       232
    29.2600       216
    29.3200       250
    29.3800       214
    29.4400       262
    29.5000       236
    29.5600       206
    29.6200       228
    29.6800       218
    29.7400       212
    29.8000       200
    29.8600       200
    29.9200       230
    29.9800       190
    30.0400       198
    30.1000       198
    30.1600       180
    30.2200       184
    30.2800       194
    30.3400       200
    30.4000       178
    30.4600       194
    30.5200       172
    30.5800       178
    30.6400       184
    30.7000       144
    30.7600       172
    30.8200       174
    30.8800       162
    30.9400       148
    31.0000       154
    31.0600       168
    31.1200       156
    31.1800       146
    31.2400       138
    31.3000       152
    31.3600       154
    31.4200       148
    31.4800       144
    31.5400       168
    31.6000       130
    31.6600       166
    31.7200       144
    31.7800       138
    31.8400       142
    31.9000       154
    31.9600       152
    32.0200       166
    32.0800       154
    32.1400       132
    32.2000       128
    32.2600       146
    32.3200       136
    32.3800       144
    32.4400       144
    32.5000       144
    32.5600       128
    32.6200       160
    32.6800       128
    32.7400       158
    32.8000       106
    32.8600       146
    32.9200       134
    32.9800       146
    33.0400       118
    33.1000       124
    33.1600       132
    33.2200       126
    33.2800       108
    33.3400       132
    33.4000       146
    33.4600       144
    33.5200       126
    33.5800       142
    33.6400       118
    33.7000       106
    33.7600       124
    33.8200       124
    33.8800       138
    33.9400       126
    34.0000       108
    34.0600       112
    34.1200       130
    34.1800       120
    34.2400       110
    34.3000       126
    34.3600       128
    34.4200       126
    34.4800       128
    34.5400       112
    34.6000       130
    34.6600       118
    34.7200       130
    34.7800       112
    34.8400       112
    34.9000       108
    34.9600       126
    35.0200       118
    35.0800       116
    35.1400       134
    35.2000       114
    35.2600       124
    35.3200       128
    35.3800       140
    35.4400       116
    35.5000       126
    35.5600       110
    35.6200       118
    35.6800       112
    35.7400       120
    35.8000       108
    35.8600       128
    35.9200       124
    35.9800       114
    36.0400       124
    36.1000       134
    36.1600       116
    36.2200       122
    36.2800       122
    36.3400       124
    36.4000       148
    36.4600        94
    36.5200       134
    36.5800       124
    36.6400       102
    36.7000       138
    36.7600       114
    36.8200       154
    36.8800       134
    36.9400       132
    37.0000       140
    37.0600       172
    37.1200       146
    37.1800       154
    37.2400       170
    37.3000       248
    37.3600       278
    37.4200       394
    37.4800       540
    37.5400       940
    37.6000      1896
    37.6600      3410
    37.7200      4524
    37.7800      3950
    37.8400      2684
    37.9000      1468
    37.9600       726
    38.0200       418
    38.0800       286
    38.1400       210
    38.2000       202
    38.2600       176
    38.3200       174
    38.3800       164
    38.4400       134
    38.5000       168
    38.5600       152
    38.6200       136
    38.6800       142
    38.7400       118
    38.8000       136
    38.8600       122
    38.9200       124
    38.9800       132
    39.0400       150
    39.1000       152
    39.1600       150
    39.2200       134
    39.2800       138
    39.3400       140
    39.4000       142
    39.4600       170
    39.5200       166
    39.5800       156
    39.6400       144
    39.7000       140
    39.7600       144
    39.8200       154
    39.8800       148
    39.9400       150
    40.0000       150
    40.0600       170
    40.1200       168
    40.1800       144
    40.2400       150
    40.3000       150
    40.3600       174
    40.4200       164
    40.4800       162
    40.5400       158
    40.6000       172
    40.6600       176
    40.7200       160
    40.7800       162
    40.8400       168
    40.9000       188
    40.9600       188
    41.0200       176
    41.0800       202
    41.1400       206
    41.2000       220
    41.2600       164
    41.3200       196
    41.3800       222
    41.4400       178
    41.5000       208
    41.5600       234
    41.6200       220
    41.6800       248
    41.7400       232
    41.8000       238
    41.8600       200
    41.9200       226
    41.9800       240
    42.0400       238
    42.1000       232
    42.1600       224
    42.2200       232
    42.2800       244
    42.3400       240
    42.4000       212
    42.4600       264
    42.5200       258
    42.5800       282
    42.6400       254
    42.7000       290
    42.7600       254
    42.8200       284
    42.8800       288
    42.9400       252
    43.0000       290
    43.0600       286
    43.1200       278
    43.1800       280
    43.2400       288
    43.3000       274
    43.3600       240
    43.4200       254
    43.4800       294
    43.5400       286
    43.6000       330
    43.6600       380
    43.7200       466
    43.7800       624
    43.8400      1036
    43.9000      1764
    43.9600      2224
    44.0200      2068
    44.0800      1694
    44.1400      1036
    44.2000       692
    44.2600       414
    44.3200       342
    44.3800       306
    44.4400       264
    44.5000       252
    44.5600       230
    44.6200       284
    44.6800       250
    44.7400       248
    44.8000       226
    44.8600       238
    44.9200       220
    44.9800       240
    45.0400       240
    45.1000       202
    45.1600       220
    45.2200       216
    45.2800       218
    45.3400       234
    45.4000       198
    45.4600       210
    45.5200       198
    45.5800       194
    45.6400       204
    45.7000       206
    45.7600       206
    45.8200       204
    45.8800       166
    45.9400       200
    46.0000       190
    46.0600       190
    46.1200       204
    46.1800       198
    46.2400       204
    46.3000       202
    46.3600       196
    46.4200       184
    46.4800       182
    46.5400       168
    46.6000       216
    46.6600       182
    46.7200       178
    46.7800       180
    46.8400       202
    46.9000       172
    46.9600       160
    47.0200       176
    47.0800       188
    47.1400       148
    47.2000       144
    47.2600       156
    47.3200       182
    47.3800       172
    47.4400       202
    47.5000       172
    47.5600       198
    47.6200       168
    47.6800       148
    47.7400       174
    47.8000       140
    47.8600       176
    47.9200       172
    47.9800       148
    48.0400       152
    48.1000       156
    48.1600       150
    48.2200       158
    48.2800       162
    48.3400       180
    48.4000       158
    48.4600       168
    48.5200       150
    48.5800       154
    48.6400       148
    48.7000       144
    48.7600       156
    48.8200       172
    48.8800       158
    48.9400       168
    49.0000       144
    49.0600       168
    49.1200       144
    49.1800       150
    49.2400       150
    49.3000       140
    49.3600       144
    49.4200       154
    49.4800       160
    49.5400       158
    49.6000       150
    49.6600       152
    49.7200       164
    49.7800       132
    49.8400       148
    49.9000       128
    49.9600       138
    50.0200       150
    50.0800       132
    50.1400       132
    50.2000       136
    50.2600       146
    50.3200       142
    50.3800       146
    50.4400       120
    50.5000       142
    50.5600       112
    50.6200       130
    50.6800       148
    50.7400       112
    50.8000       172
    50.8600       116
    50.9200       128
    50.9800       144
    51.0400       138
    51.1000       152
    51.1600       126
    51.2200       122
    51.2800       146
    51.3400       128
    51.4000       132
    51.4600       124
    51.5200       134
    51.5800       116
    51.6400       122
    51.7000       142
    51.7600       122
    51.8200       126
    51.8800       126
    51.9400       136
    52.0000       138
    52.0600       128
    52.1200       114
    52.1800       150
    52.2400       106
    52.3000       120
    52.3600       114
    52.4200       138
    52.4800       122
    52.5400       132
    52.6000       146
    52.6600       120
    52.7200       116
    52.7800       110
    52.8400       146
    52.9000       124
    52.9600       122
    53.0200       116
    53.0800       158
    53.1400       124
    53.2000       138
    53.2600       112
    53.3200       122
    53.3800       136
    53.4400       108
    53.5000       116
    53.5600       116
    53.6200       100
    53.6800       128
    53.7400       134
    53.8000       132
    53.8600       112
    53.9200       122
    53.9800       116
    54.0400       114
    54.1000       136
    54.1600       114
    54.2200        94
    54.2800       104
    54.3400       128
    54.4000        96
    54.4600       120
    54.5200       108
    54.5800       128
    54.6400       120
    54.7000       100
    54.7600       112
    54.8200        98
    54.8800        96
    54.9400       112
    55.0000       130
    55.0600       112
    55.1200       126
    55.1800       124
    55.2400       116
    55.3000       106
    55.3600       102
    55.4200       118
    55.4800       110
    55.5400        86
    55.6000        88
    55.6600       112
    55.7200        94
    55.7800       100
    55.8400        94
    55.9000        90
    55.9600        84
    56.0200       102
    56.0800       100
    56.1400        94
    56.2000       104
    56.2600        98
    56.3200        98
    56.3800        88
    56.4400        84
    56.5000        94
    56.5600        86
    56.6200        84
    56.6800        96
    56.7400        86
    56.8000        90
    56.8600       110
    56.9200       104
    56.9800        86
    57.0400        96
    57.1000       104
    57.1600       104
    57.2200       102
    57.2800        96
    57.3400        84
    57.4000        90
    57.4600       108
    57.5200        96
    57.5800       120
    57.6400        86
    57.7000        90
    57.7600        74
    57.8200       102
    57.8800        90
    57.9400        76
    58.0000        80
    58.0600        94
    58.1200        82
    58.1800        78
    58.2400        72
    58.3000        94
    58.3600        74
    58.4200        78
    58.4800        72
    58.5400        68
    58.6000        82
    58.6600        96
    58.7200        84
    58.7800        78
    58.8400        94
    58.9000        84
    58.9600        72
    59.0200        68
    59.0800        84
    59.1400        92
    59.2000        74
    59.2600        78
    59.3200        78
    59.3800        82
    59.4400        92
    59.5000        72
    59.5600        66
    59.6200        80
    59.6800        88
    59.7400        62
    59.8000        86
    59.8600        72
    59.9200        74
    59.9800        70
    60.0400        80
    60.1000        76
    60.1600        78
    60.2200        82
    60.2800        56
    60.3400        96
    60.4000        72
    60.4600        72
    60.5200        64
    60.5800        62
    60.6400        74
    60.7000        70
    60.7600        74
    60.8200        72
    60.8800        84
    60.9400        92
    61.0000        80
    61.0600        72
    61.1200        78
    61.1800        80
    61.2400        72
    61.3000        70
    61.3600        70
    61.4200        82
    61.4800        84
    61.5400        76
    61.6000        70
    61.6600        66
    61.7200        74
    61.7800        82
    61.8400        72
    61.9000        78
    61.9600        76
    62.0200        60
    62.0800        80
    62.1400        88
    62.2000        66
    62.2600        78
    62.3200        80
    62.3800        62
    62.4400        62
    62.5000        80
    62.5600        92
    62.6200        88
    62.6800        70
    62.7400        66
    62.8000        76
    62.8600        60
    62.9200        58
    62.9800        64
    63.0400        64
    63.1000        62
    63.1600        72
    63.2200        70
    63.2800        72
    63.3400        64
    63.4000        62
    63.4600        78
    63.5200        76
    63.5800        72
    63.6400        70
    63.7000        74
    63.7600        74
    63.8200        60
    63.8800        76
    63.9400        74
    64.0000        66
    64.0600        80
    64.1200        88
    64.1800       108
    64.2400       158
    64.3000       146
    64.3600       134
    64.4200       128
    64.4800       116
    64.5400        92
    64.6000        74
    64.6600        80
    64.7200        74
    64.7800        62
    64.8400        78
    64.9000        66
    64.9600        56
    65.0000        62