File: sl1/usgs/library06/DESCRIPT/new_xrd_results_to_be_added/Rhonda_Driscoll_xrd_runs/GDS764---Chlorite.txt
/////////////////////////////////////////////////////////////////////////////////
/// Profile Data Ascii Dump (XRD)                                             ///
/////////////////////////////////////////////////////////////////////////////////

  Group     : Swayze
  Data      : GDS764
  File Name : GDS764.RAW

# Profile Datafile
          comment             = Chlorite
          date & time         = 08-03-12 05:58:27

# Measurement Condition
    X-ray tube
          target              = Cu
          voltage             = 40.0 (kV)
          current             = 30.0 (mA)
    Slits
          divergence slit     = 2.00000 (deg)
          scatter slit        = 2.00000 (deg)
          receiving slit      = 0.15000 (mm)
    Scanning
          drive axis          = Theta-2Theta
          scan range          =    4.000 -   65.000
          scan mode           = Continuous Scan
          scan speed          =   2.0000 (deg/min)
          sampling pitch      =   0.0200 (deg)
          preset time         =   0.60 (sec)

# Data      [ Total No. = 3051 ]
  <2Theta>   <   I   >
     4.0000       212
     4.0600       226
     4.1200       216
     4.1800       218
     4.2400       216
     4.3000       210
     4.3600       188
     4.4200       204
     4.4800       206
     4.5400       200
     4.6000       200
     4.6600       196
     4.7200       218
     4.7800       180
     4.8400       188
     4.9000       174
     4.9600       182
     5.0200       190
     5.0800       184
     5.1400       188
     5.2000       192
     5.2600       216
     5.3200       184
     5.3800       226
     5.4400       226
     5.5000       208
     5.5600       230
     5.6200       216
     5.6800       278
     5.7400       284
     5.8000       316
     5.8600       342
     5.9200       398
     5.9800       518
     6.0400       662
     6.1000       856
     6.1600       988
     6.2200       666
     6.2800       376
     6.3400       236
     6.4000       204
     6.4600       186
     6.5200       140
     6.5800       162
     6.6400       162
     6.7000       164
     6.7600       136
     6.8200       142
     6.8800       144
     6.9400       142
     7.0000       128
     7.0600       126
     7.1200       136
     7.1800       150
     7.2400       136
     7.3000       110
     7.3600       112
     7.4200       136
     7.4800       136
     7.5400       132
     7.6000       120
     7.6600       136
     7.7200       104
     7.7800       146
     7.8400       120
     7.9000       106
     7.9600       108
     8.0200       144
     8.0800       102
     8.1400       124
     8.2000       122
     8.2600       116
     8.3200       112
     8.3800       120
     8.4400       130
     8.5000       108
     8.5600       136
     8.6200       128
     8.6800       158
     8.7400        94
     8.8000       112
     8.8600       130
     8.9200       122
     8.9800       136
     9.0400       120
     9.1000       124
     9.1600       144
     9.2200       112
     9.2800       120
     9.3400       112
     9.4000       136
     9.4600       110
     9.5200       136
     9.5800       110
     9.6400       118
     9.7000       114
     9.7600       126
     9.8200       108
     9.8800       114
     9.9400       132
    10.0000       114
    10.0600       124
    10.1200       124
    10.1800       112
    10.2400       100
    10.3000       116
    10.3600        90
    10.4200       108
    10.4800       116
    10.5400       118
    10.6000       110
    10.6600        90
    10.7200        90
    10.7800       114
    10.8400        92
    10.9000        90
    10.9600       108
    11.0200        92
    11.0800       134
    11.1400       116
    11.2000        98
    11.2600       110
    11.3200        92
    11.3800       102
    11.4400       100
    11.5000        92
    11.5600        90
    11.6200       134
    11.6800       132
    11.7400       138
    11.8000       124
    11.8600       174
    11.9200       204
    11.9800       236
    12.0400       290
    12.1000       376
    12.1600       536
    12.2200       680
    12.2800      1134
    12.3400      1548
    12.4000      1662
    12.4600       980
    12.5200       388
    12.5800       222
    12.6400       160
    12.7000       114
    12.7600        92
    12.8200       108
    12.8800        98
    12.9400        86
    13.0000        90
    13.0600        72
    13.1200        70
    13.1800        92
    13.2400        84
    13.3000        74
    13.3600        78
    13.4200        90
    13.4800        88
    13.5400        74
    13.6000        62
    13.6600        72
    13.7200        60
    13.7800        70
    13.8400        70
    13.9000        70
    13.9600        58
    14.0200        60
    14.0800        78
    14.1400        76
    14.2000        60
    14.2600        58
    14.3200        72
    14.3800        72
    14.4400        62
    14.5000        60
    14.5600        60
    14.6200        62
    14.6800        62
    14.7400        64
    14.8000        60
    14.8600        76
    14.9200        54
    14.9800        72
    15.0400        62
    15.1000        66
    15.1600        78
    15.2200        42
    15.2800        66
    15.3400        70
    15.4000        58
    15.4600        60
    15.5200        76
    15.5800        72
    15.6400        58
    15.7000        62
    15.7600        64
    15.8200        66
    15.8800        46
    15.9400        54
    16.0000        50
    16.0600        68
    16.1200        56
    16.1800        64
    16.2400        58
    16.3000        64
    16.3600        44
    16.4200        68
    16.4800        62
    16.5400        44
    16.6000        66
    16.6600        56
    16.7200        74
    16.7800        72
    16.8400        72
    16.9000        66
    16.9600        80
    17.0200        54
    17.0800        62
    17.1400        56
    17.2000        58
    17.2600        60
    17.3200        52
    17.3800        68
    17.4400        50
    17.5000        72
    17.5600        66
    17.6200        78
    17.6800        64
    17.7400        62
    17.8000        62
    17.8600        76
    17.9200        82
    17.9800        78
    18.0400       120
    18.1000       126
    18.1600       122
    18.2200       176
    18.2800       204
    18.3400       316
    18.4000       408
    18.4600       594
    18.5200       938
    18.5800      1374
    18.6400      1666
    18.7000      1392
    18.7600       792
    18.8200       366
    18.8800       216
    18.9400       200
    19.0000       174
    19.0600       186
    19.1200       196
    19.1800       270
    19.2400       264
    19.3000       260
    19.3600       246
    19.4200       218
    19.4800       188
    19.5400       170
    19.6000       196
    19.6600       162
    19.7200       146
    19.7800       146
    19.8400       138
    19.9000       142
    19.9600       144
    20.0200       126
    20.0800       124
    20.1400       128
    20.2000       106
    20.2600       136
    20.3200       118
    20.3800       128
    20.4400       120
    20.5000       136
    20.5600       128
    20.6200       114
    20.6800       104
    20.7400       116
    20.8000       118
    20.8600        94
    20.9200       102
    20.9800       132
    21.0400       100
    21.1000       106
    21.1600       110
    21.2200       108
    21.2800        94
    21.3400       112
    21.4000       106
    21.4600       110
    21.5200        86
    21.5800        98
    21.6400       112
    21.7000       108
    21.7600        76
    21.8200       106
    21.8800        86
    21.9400        82
    22.0000       100
    22.0600        80
    22.1200        88
    22.1800       100
    22.2400       100
    22.3000       106
    22.3600       100
    22.4200        98
    22.4800        90
    22.5400        88
    22.6000        88
    22.6600        82
    22.7200        78
    22.7800        86
    22.8400        92
    22.9000        86
    22.9600        76
    23.0200        92
    23.0800       102
    23.1400       104
    23.2000        76
    23.2600        98
    23.3200        92
    23.3800        92
    23.4400       110
    23.5000       102
    23.5600        80
    23.6200       102
    23.6800        90
    23.7400       104
    23.8000        88
    23.8600        86
    23.9200       110
    23.9800       108
    24.0400        94
    24.1000        82
    24.1600        80
    24.2200        96
    24.2800       112
    24.3400       136
    24.4000       134
    24.4600       116
    24.5200       162
    24.5800       208
    24.6400       262
    24.7000       404
    24.7600       654
    24.8200       922
    24.8800      1506
    24.9400      2008
    25.0000      1906
    25.0600      1344
    25.1200       686
    25.1800       412
    25.2400       234
    25.3000       186
    25.3600       162
    25.4200       138
    25.4800       110
    25.5400       116
    25.6000       122
    25.6600        78
    25.7200        76
    25.7800        94
    25.8400        86
    25.9000        82
    25.9600        96
    26.0200        88
    26.0800        68
    26.1400        80
    26.2000        70
    26.2600        78
    26.3200        88
    26.3800        68
    26.4400        74
    26.5000        78
    26.5600        80
    26.6200        62
    26.6800        64
    26.7400        68
    26.8000        76
    26.8600        62
    26.9200        74
    26.9800        70
    27.0400        60
    27.1000        72
    27.1600        78
    27.2200        70
    27.2800        80
    27.3400        82
    27.4000        84
    27.4600        56
    27.5200        66
    27.5800        66
    27.6400        86
    27.7000        56
    27.7600        74
    27.8200        72
    27.8800        48
    27.9400        70
    28.0000        60
    28.0600        70
    28.1200        64
    28.1800        76
    28.2400        70
    28.3000        52
    28.3600        60
    28.4200        62
    28.4800        50
    28.5400        76
    28.6000        48
    28.6600        60
    28.7200        78
    28.7800        68
    28.8400        52
    28.9000        82
    28.9600        50
    29.0200        74
    29.0800        66
    29.1400        62
    29.2000        54
    29.2600        62
    29.3200        58
    29.3800        54
    29.4400        56
    29.5000        64
    29.5600        58
    29.6200        60
    29.6800        44
    29.7400        48
    29.8000        52
    29.8600        68
    29.9200        54
    29.9800        54
    30.0400        68
    30.1000        60
    30.1600        68
    30.2200        58
    30.2800        52
    30.3400        58
    30.4000        66
    30.4600        64
    30.5200        60
    30.5800        68
    30.6400        68
    30.7000        66
    30.7600        74
    30.8200        78
    30.8800        64
    30.9400       100
    31.0000        84
    31.0600       122
    31.1200       156
    31.1800       262
    31.2400       332
    31.3000       520
    31.3600       586
    31.4200       504
    31.4800       374
    31.5400       234
    31.6000       144
    31.6600       102
    31.7200        76
    31.7800        66
    31.8400        68
    31.9000        46
    31.9600        46
    32.0200        56
    32.0800        68
    32.1400        46
    32.2000        68
    32.2600        40
    32.3200        60
    32.3800        68
    32.4400        62
    32.5000        58
    32.5600        46
    32.6200        44
    32.6800        30
    32.7400        50
    32.8000        58
    32.8600        58
    32.9200        52
    32.9800        64
    33.0400        62
    33.1000        64
    33.1600        60
    33.2200        50
    33.2800        48
    33.3400        72
    33.4000        54
    33.4600        56
    33.5200        74
    33.5800        86
    33.6400        96
    33.7000       122
    33.7600        98
    33.8200        88
    33.8800        82
    33.9400        88
    34.0000        80
    34.0600        74
    34.1200        72
    34.1800        80
    34.2400        82
    34.3000        98
    34.3600       110
    34.4200       110
    34.4800       164
    34.5400       226
    34.6000       322
    34.6600       360
    34.7200       308
    34.7800       232
    34.8400       206
    34.9000       178
    34.9600       236
    35.0200       208
    35.0800       310
    35.1400       478
    35.2000       604
    35.2600       674
    35.3200       626
    35.3800       488
    35.4400       326
    35.5000       212
    35.5600       138
    35.6200       122
    35.6800       118
    35.7400        98
    35.8000       110
    35.8600        94
    35.9200       102
    35.9800        98
    36.0400        96
    36.1000       112
    36.1600        94
    36.2200        92
    36.2800        98
    36.3400       112
    36.4000       112
    36.4600       146
    36.5200       168
    36.5800       230
    36.6400       342
    36.7000       408
    36.7600       516
    36.8200       454
    36.8800       394
    36.9400       296
    37.0000       210
    37.0600       132
    37.1200       118
    37.1800       110
    37.2400        90
    37.3000       102
    37.3600       106
    37.4200       120
    37.4800       126
    37.5400       168
    37.6000       204
    37.6600       234
    37.7200       266
    37.7800       264
    37.8400       232
    37.9000       200
    37.9600       138
    38.0200       116
    38.0800       116
    38.1400        80
    38.2000        76
    38.2600        72
    38.3200        52
    38.3800        58
    38.4400        56
    38.5000        76
    38.5600        62
    38.6200        56
    38.6800        56
    38.7400        50
    38.8000        64
    38.8600        58
    38.9200        46
    38.9800        60
    39.0400        62
    39.1000        72
    39.1600        60
    39.2200        60
    39.2800        58
    39.3400        60
    39.4000        70
    39.4600        86
    39.5200        84
    39.5800        98
    39.6400       130
    39.7000       166
    39.7600       200
    39.8200       216
    39.8800       200
    39.9400       196
    40.0000       154
    40.0600       126
    40.1200       102
    40.1800        82
    40.2400        70
    40.3000        62
    40.3600        48
    40.4200        48
    40.4800        60
    40.5400        50
    40.6000        48
    40.6600        48
    40.7200        62
    40.7800        58
    40.8400        62
    40.9000        56
    40.9600        60
    41.0200        66
    41.0800        52
    41.1400        58
    41.2000        50
    41.2600        50
    41.3200        50
    41.3800        52
    41.4400        36
    41.5000        42
    41.5600        56
    41.6200        56
    41.6800        54
    41.7400        36
    41.8000        42
    41.8600        46
    41.9200        60
    41.9800        42
    42.0400        52
    42.1000        46
    42.1600        48
    42.2200        40
    42.2800        50
    42.3400        38
    42.4000        50
    42.4600        36
    42.5200        46
    42.5800        58
    42.6400        34
    42.7000        58
    42.7600        44
    42.8200        54
    42.8800        40
    42.9400        48
    43.0000        40
    43.0600        48
    43.1200        42
    43.1800        46
    43.2400        52
    43.3000        50
    43.3600        62
    43.4200        56
    43.4800        72
    43.5400        88
    43.6000        86
    43.6600        88
    43.7200       102
    43.7800        80
    43.8400        74
    43.9000        80
    43.9600        96
    44.0200        82
    44.0800        58
    44.1400        98
    44.2000        78
    44.2600        86
    44.3200       114
    44.3800       150
    44.4400       132
    44.5000       160
    44.5600       198
    44.6200       192
    44.6800       172
    44.7400       156
    44.8000       172
    44.8600       188
    44.9200       266
    44.9800       318
    45.0400       388
    45.1000       432
    45.1600       518
    45.2200       446
    45.2800       446
    45.3400       350
    45.4000       290
    45.4600       228
    45.5200       158
    45.5800       122
    45.6400       100
    45.7000        94
    45.7600        78
    45.8200        70
    45.8800        68
    45.9400        62
    46.0000        60
    46.0600        58
    46.1200        52
    46.1800        62
    46.2400        78
    46.3000        56
    46.3600        48
    46.4200        44
    46.4800        56
    46.5400        46
    46.6000        56
    46.6600        48
    46.7200        52
    46.7800        50
    46.8400        40
    46.9000        52
    46.9600        44
    47.0200        48
    47.0800        40
    47.1400        54
    47.2000        52
    47.2600        46
    47.3200        44
    47.3800        46
    47.4400        58
    47.5000        38
    47.5600        38
    47.6200        48
    47.6800        44
    47.7400        54
    47.8000        74
    47.8600        68
    47.9200        80
    47.9800       116
    48.0400       120
    48.1000       146
    48.1600       152
    48.2200       170
    48.2800       192
    48.3400       180
    48.4000       144
    48.4600       106
    48.5200       110
    48.5800        84
    48.6400        60
    48.7000        72
    48.7600        62
    48.8200        68
    48.8800        48
    48.9400        54
    49.0000        46
    49.0600        50
    49.1200        48
    49.1800        56
    49.2400        56
    49.3000        50
    49.3600        76
    49.4200        70
    49.4800        76
    49.5400        90
    49.6000        86
    49.6600       118
    49.7200       138
    49.7800       178
    49.8400       180
    49.9000       200
    49.9600       196
    50.0200       164
    50.0800       148
    50.1400       134
    50.2000       128
    50.2600        86
    50.3200        70
    50.3800        52
    50.4400        52
    50.5000        60
    50.5600        48
    50.6200        66
    50.6800        44
    50.7400        32
    50.8000        42
    50.8600        44
    50.9200        50
    50.9800        56
    51.0400        48
    51.1000        56
    51.1600        42
    51.2200        50
    51.2800        56
    51.3400        60
    51.4000        52
    51.4600        52
    51.5200        38
    51.5800        42
    51.6400        40
    51.7000        36
    51.7600        38
    51.8200        42
    51.8800        36
    51.9400        42
    52.0000        50
    52.0600        36
    52.1200        44
    52.1800        48
    52.2400        52
    52.3000        36
    52.3600        60
    52.4200        54
    52.4800        72
    52.5400        70
    52.6000        84
    52.6600        66
    52.7200        78
    52.7800        86
    52.8400        74
    52.9000        64
    52.9600        56
    53.0200        70
    53.0800        82
    53.1400        78
    53.2000        90
    53.2600        88
    53.3200        74
    53.3800        80
    53.4400        80
    53.5000        76
    53.5600        72
    53.6200        70
    53.6800        54
    53.7400        76
    53.8000        74
    53.8600        76
    53.9200        56
    53.9800        62
    54.0400        70
    54.1000        60
    54.1600        62
    54.2200        62
    54.2800        66
    54.3400        70
    54.4000        58
    54.4600        44
    54.5200        66
    54.5800        68
    54.6400        64
    54.7000        56
    54.7600        64
    54.8200        74
    54.8800        88
    54.9400        84
    55.0000        78
    55.0600       100
    55.1200       110
    55.1800       102
    55.2400       100
    55.3000        76
    55.3600        84
    55.4200        90
    55.4800        64
    55.5400        62
    55.6000        58
    55.6600        58
    55.7200        58
    55.7800        64
    55.8400        50
    55.9000        54
    55.9600        48
    56.0200        52
    56.0800        50
    56.1400        58
    56.2000        66
    56.2600        50
    56.3200        42
    56.3800        50
    56.4400        52
    56.5000        50
    56.5600        56
    56.6200        56
    56.6800        64
    56.7400        60
    56.8000        54
    56.8600        48
    56.9200        54
    56.9800        58
    57.0400        52
    57.1000        54
    57.1600        56
    57.2200        56
    57.2800        46
    57.3400        56
    57.4000        56
    57.4600        54
    57.5200        50
    57.5800        64
    57.6400        54
    57.7000        54
    57.7600        56
    57.8200        54
    57.8800        48
    57.9400        66
    58.0000        56
    58.0600        72
    58.1200        78
    58.1800        80
    58.2400        80
    58.3000       102
    58.3600       106
    58.4200       126
    58.4800       174
    58.5400       190
    58.6000       198
    58.6600       238
    58.7200       262
    58.7800       312
    58.8400       294
    58.9000       310
    58.9600       286
    59.0200       240
    59.0800       228
    59.1400       184
    59.2000       158
    59.2600       156
    59.3200       108
    59.3800       106
    59.4400       122
    59.5000        98
    59.5600        84
    59.6200        90
    59.6800        88
    59.7400       104
    59.8000        80
    59.8600       122
    59.9200       136
    59.9800       158
    60.0400       236
    60.1000       366
    60.1600       438
    60.2200       380
    60.2800       356
    60.3400       298
    60.4000       242
    60.4600       188
    60.5200       140
    60.5800       120
    60.6400       108
    60.7000        80
    60.7600        82
    60.8200        94
    60.8800        78
    60.9400        86
    61.0000        72
    61.0600        68
    61.1200        78
    61.1800        56
    61.2400        62
    61.3000        68
    61.3600        86
    61.4200        80
    61.4800        86
    61.5400       116
    61.6000       126
    61.6600       124
    61.7200       136
    61.7800       132
    61.8400       114
    61.9000       112
    61.9600       100
    62.0200        82
    62.0800        66
    62.1400        50
    62.2000        46
    62.2600        52
    62.3200        50
    62.3800        44
    62.4400        48
    62.5000        34
    62.5600        54
    62.6200        54
    62.6800        26
    62.7400        50
    62.8000        44
    62.8600        56
    62.9200        48
    62.9800        54
    63.0400        48
    63.1000        32
    63.1600        68
    63.2200        66
    63.2800        62
    63.3400        46
    63.4000        46
    63.4600        68
    63.5200        64
    63.5800        62
    63.6400        78
    63.7000        58
    63.7600        72
    63.8200        58
    63.8800        52
    63.9400        48
    64.0000        46
    64.0600        44
    64.1200        44
    64.1800        32
    64.2400        48
    64.3000        56
    64.3600        36
    64.4200        50
    64.4800        30
    64.5400        42
    64.6000        42
    64.6600        46
    64.7200        50
    64.7800        48
    64.8400        46
    64.9000        46
    64.9600        42
    65.0000        48