File: sl1/usgs/library06/DESCRIPT/new_xrd_results_to_be_added/Rhonda_Driscoll_xrd_runs/GDS7---Scolecite.txt
/////////////////////////////////////////////////////////////////////////////////
/// Profile Data Ascii Dump (XRD)                                             ///
/////////////////////////////////////////////////////////////////////////////////

  Group     : Swayze
  Data      : GDS7
  File Name : GDS7.RAW

# Profile Datafile
          comment             = Scolecite
          date & time         = 08-03-25 05:51:12

# Measurement Condition
    X-ray tube
          target              = Cu
          voltage             = 40.0 (kV)
          current             = 30.0 (mA)
    Slits
          divergence slit     = 2.00000 (deg)
          scatter slit        = 2.00000 (deg)
          receiving slit      = 0.15000 (mm)
    Scanning
          drive axis          = Theta-2Theta
          scan range          =    4.000 -   65.000
          scan mode           = Continuous Scan
          scan speed          =   2.0000 (deg/min)
          sampling pitch      =   0.0200 (deg)
          preset time         =   0.60 (sec)

# Data      [ Total No. = 3051 ]
  <2Theta>   <   I   >
     4.0000       210
     4.0600       170
     4.1200       210
     4.1800       180
     4.2400       184
     4.3000       178
     4.3600       204
     4.4200       184
     4.4800       170
     4.5400       202
     4.6000       164
     4.6600       148
     4.7200       158
     4.7800       152
     4.8400       128
     4.9000       156
     4.9600       174
     5.0200       160
     5.0800       156
     5.1400       180
     5.2000       158
     5.2600       148
     5.3200       172
     5.3800       182
     5.4400       168
     5.5000       166
     5.5600       154
     5.6200       136
     5.6800       148
     5.7400       152
     5.8000       156
     5.8600       158
     5.9200       184
     5.9800       166
     6.0400       154
     6.1000       150
     6.1600       162
     6.2200       172
     6.2800       136
     6.3400       130
     6.4000       158
     6.4600       128
     6.5200       142
     6.5800       146
     6.6400       116
     6.7000       126
     6.7600       138
     6.8200       158
     6.8800       128
     6.9400       116
     7.0000       102
     7.0600       130
     7.1200       120
     7.1800       124
     7.2400       112
     7.3000       128
     7.3600       158
     7.4200       118
     7.4800       118
     7.5400       116
     7.6000       134
     7.6600       112
     7.7200       114
     7.7800       108
     7.8400       120
     7.9000       110
     7.9600       132
     8.0200       134
     8.0800       124
     8.1400       120
     8.2000       118
     8.2600       118
     8.3200       106
     8.3800       120
     8.4400       122
     8.5000       118
     8.5600       108
     8.6200       116
     8.6800       104
     8.7400       100
     8.8000       118
     8.8600       126
     8.9200       110
     8.9800       138
     9.0400       106
     9.1000       104
     9.1600        94
     9.2200       116
     9.2800       112
     9.3400       118
     9.4000       120
     9.4600       120
     9.5200        98
     9.5800       112
     9.6400        98
     9.7000        88
     9.7600       104
     9.8200       102
     9.8800       124
     9.9400        96
    10.0000       102
    10.0600       100
    10.1200       106
    10.1800       114
    10.2400        94
    10.3000       102
    10.3600        86
    10.4200        94
    10.4800        94
    10.5400       104
    10.6000        96
    10.6600        92
    10.7200       106
    10.7800        90
    10.8400        88
    10.9000        90
    10.9600        88
    11.0200       104
    11.0800        82
    11.1400        92
    11.2000        96
    11.2600        90
    11.3200        78
    11.3800        68
    11.4400        92
    11.5000        82
    11.5600        68
    11.6200        90
    11.6800        90
    11.7400        92
    11.8000        70
    11.8600        76
    11.9200        86
    11.9800        96
    12.0400        78
    12.1000        80
    12.1600        68
    12.2200        54
    12.2800        78
    12.3400        74
    12.4000        78
    12.4600        76
    12.5200        80
    12.5800        66
    12.6400       102
    12.7000        86
    12.7600        94
    12.8200       100
    12.8800       128
    12.9400       176
    13.0000       274
    13.0600       170
    13.1200       286
    13.1800       606
    13.2400      1880
    13.3000      1434
    13.3600       262
    13.4200       106
    13.4800       106
    13.5400        86
    13.6000        76
    13.6600        62
    13.7200        78
    13.7800        76
    13.8400        60
    13.9000        66
    13.9600        58
    14.0200        74
    14.0800        68
    14.1400        66
    14.2000        80
    14.2600        58
    14.3200        66
    14.3800        96
    14.4400        64
    14.5000        72
    14.5600        74
    14.6200       106
    14.6800       108
    14.7400       102
    14.8000       122
    14.8600       232
    14.9200       254
    14.9800       286
    15.0400       188
    15.1000       138
    15.1600        90
    15.2200        64
    15.2800        78
    15.3400        64
    15.4000        60
    15.4600        68
    15.5200        60
    15.5800        62
    15.6400        50
    15.7000        54
    15.7600        66
    15.8200        64
    15.8800        54
    15.9400        58
    16.0000        74
    16.0600        40
    16.1200        52
    16.1800        46
    16.2400        66
    16.3000        62
    16.3600        52
    16.4200        42
    16.4800        58
    16.5400        66
    16.6000        66
    16.6600        62
    16.7200        48
    16.7800        50
    16.8400        54
    16.9000        50
    16.9600        42
    17.0200        54
    17.0800        54
    17.1400        56
    17.2000        38
    17.2600        60
    17.3200        46
    17.3800        60
    17.4400        46
    17.5000        60
    17.5600        56
    17.6200        54
    17.6800        32
    17.7400        64
    17.8000        46
    17.8600        52
    17.9200        58
    17.9800        62
    18.0400        58
    18.1000        74
    18.1600        50
    18.2200        88
    18.2800        84
    18.3400        98
    18.4000       100
    18.4600       184
    18.5200       552
    18.5800       502
    18.6400       512
    18.7000       326
    18.7600       148
    18.8200       118
    18.8800       102
    18.9400       166
    19.0000      1064
    19.0600      1054
    19.1200       412
    19.1800       142
    19.2400        74
    19.3000        64
    19.3600        52
    19.4200        82
    19.4800        64
    19.5400        52
    19.6000        62
    19.6600        72
    19.7200        68
    19.7800        86
    19.8400       136
    19.9000       262
    19.9600       306
    20.0200       296
    20.0800       326
    20.1400       296
    20.2000       254
    20.2600       170
    20.3200       204
    20.3800       192
    20.4400       110
    20.5000        46
    20.5600        62
    20.6200        82
    20.6800        80
    20.7400        86
    20.8000       154
    20.8600       378
    20.9200       560
    20.9800       470
    21.0400       230
    21.1000       110
    21.1600       138
    21.2200       228
    21.2800       240
    21.3400       154
    21.4000        56
    21.4600        54
    21.5200        54
    21.5800        48
    21.6400        28
    21.7000        54
    21.7600        56
    21.8200        68
    21.8800        48
    21.9400        48
    22.0000        42
    22.0600        44
    22.1200        46
    22.1800        44
    22.2400        40
    22.3000        62
    22.3600        46
    22.4200        48
    22.4800        38
    22.5400        46
    22.6000        36
    22.6600        42
    22.7200        42
    22.7800        40
    22.8400        38
    22.9000        44
    22.9600        30
    23.0200        32
    23.0800        46
    23.1400        30
    23.2000        38
    23.2600        42
    23.3200        34
    23.3800        44
    23.4400        32
    23.5000        32
    23.5600        44
    23.6200        46
    23.6800        40
    23.7400        30
    23.8000        48
    23.8600        46
    23.9200        60
    23.9800        42
    24.0400        60
    24.1000        62
    24.1600        86
    24.2200       102
    24.2800       142
    24.3400       124
    24.4000        54
    24.4600        46
    24.5200        26
    24.5800        44
    24.6400        38
    24.7000        42
    24.7600        38
    24.8200        46
    24.8800        32
    24.9400        40
    25.0000        34
    25.0600        28
    25.1200        32
    25.1800        52
    25.2400        44
    25.3000        36
    25.3600        20
    25.4200        36
    25.4800        42
    25.5400        38
    25.6000        32
    25.6600        38
    25.7200        36
    25.7800        34
    25.8400        30
    25.9000        32
    25.9600        38
    26.0200        26
    26.0800        46
    26.1400        34
    26.2000        34
    26.2600        40
    26.3200        40
    26.3800        30
    26.4400        46
    26.5000        44
    26.5600        34
    26.6200        52
    26.6800        80
    26.7400       100
    26.8000       174
    26.8600       122
    26.9200        68
    26.9800        42
    27.0400        48
    27.1000        52
    27.1600        44
    27.2200        48
    27.2800        56
    27.3400        96
    27.4000       162
    27.4600       272
    27.5200       250
    27.5800       152
    27.6400       172
    27.7000       100
    27.7600       116
    27.8200       146
    27.8800       114
    27.9400        80
    28.0000        88
    28.0600       168
    28.1200       186
    28.1800       120
    28.2400        54
    28.3000        42
    28.3600        32
    28.4200        34
    28.4800        38
    28.5400        42
    28.6000        46
    28.6600        54
    28.7200        96
    28.7800       174
    28.8400       122
    28.9000        64
    28.9600        60
    29.0200       154
    29.0800        84
    29.1400        60
    29.2000        38
    29.2600        32
    29.3200        44
    29.3800        32
    29.4400        34
    29.5000        46
    29.5600        72
    29.6200       194
    29.6800       182
    29.7400       216
    29.8000       152
    29.8600        80
    29.9200        50
    29.9800        60
    30.0400        60
    30.1000        66
    30.1600       124
    30.2200       266
    30.2800       876
    30.3400       580
    30.4000       400
    30.4600       202
    30.5200       228
    30.5800       408
    30.6400       516
    30.7000       588
    30.7600       698
    30.8200       674
    30.8800       582
    30.9400       400
    31.0000       306
    31.0600       284
    31.1200       350
    31.1800       308
    31.2400       188
    31.3000        84
    31.3600        46
    31.4200        40
    31.4800        34
    31.5400        32
    31.6000        40
    31.6600        28
    31.7200        28
    31.7800        46
    31.8400        36
    31.9000        26
    31.9600        24
    32.0200        38
    32.0800        42
    32.1400        24
    32.2000        34
    32.2600        28
    32.3200        32
    32.3800        32
    32.4400        20
    32.5000        22
    32.5600        32
    32.6200        20
    32.6800        30
    32.7400        38
    32.8000        28
    32.8600        32
    32.9200        20
    32.9800        30
    33.0400        40
    33.1000        28
    33.1600        34
    33.2200        42
    33.2800        40
    33.3400        40
    33.4000        26
    33.4600        26
    33.5200        30
    33.5800        24
    33.6400        26
    33.7000        24
    33.7600        34
    33.8200        36
    33.8800        36
    33.9400        28
    34.0000        24
    34.0600        42
    34.1200        48
    34.1800        86
    34.2400       178
    34.3000       136
    34.3600        82
    34.4200        78
    34.4800       124
    34.5400       140
    34.6000       112
    34.6600        82
    34.7200        50
    34.7800        34
    34.8400        42
    34.9000        54
    34.9600        30
    35.0200        44
    35.0800        32
    35.1400        36
    35.2000        36
    35.2600        22
    35.3200        32
    35.3800        24
    35.4400        28
    35.5000        18
    35.5600        32
    35.6200        24
    35.6800        38
    35.7400        28
    35.8000        38
    35.8600        32
    35.9200        70
    35.9800       130
    36.0400       104
    36.1000       162
    36.1600        66
    36.2200        64
    36.2800        42
    36.3400        40
    36.4000        32
    36.4600        40
    36.5200        66
    36.5800        62
    36.6400        78
    36.7000       100
    36.7600        66
    36.8200        54
    36.8800        66
    36.9400        88
    37.0000       108
    37.0600        80
    37.1200        44
    37.1800        30
    37.2400        32
    37.3000        36
    37.3600        26
    37.4200        26
    37.4800        22
    37.5400        24
    37.6000        20
    37.6600        44
    37.7200        40
    37.7800        60
    37.8400        52
    37.9000        54
    37.9600        44
    38.0200        38
    38.0800        26
    38.1400        38
    38.2000        40
    38.2600        34
    38.3200        36
    38.3800        30
    38.4400        54
    38.5000        56
    38.5600        70
    38.6200       116
    38.6800        86
    38.7400        98
    38.8000        70
    38.8600        76
    38.9200        58
    38.9800        74
    39.0400        88
    39.1000       170
    39.1600        90
    39.2200        76
    39.2800        34
    39.3400        58
    39.4000        62
    39.4600       136
    39.5200        98
    39.5800       152
    39.6400        90
    39.7000        58
    39.7600        60
    39.8200        56
    39.8800        68
    39.9400        78
    40.0000        74
    40.0600        58
    40.1200        44
    40.1800        30
    40.2400        40
    40.3000        38
    40.3600        60
    40.4200        54
    40.4800       128
    40.5400       126
    40.6000       192
    40.6600       390
    40.7200       760
    40.7800       534
    40.8400       368
    40.9000       162
    40.9600       102
    41.0200       102
    41.0800       116
    41.1400        62
    41.2000        48
    41.2600        36
    41.3200        50
    41.3800        52
    41.4400        66
    41.5000        76
    41.5600        54
    41.6200        34
    41.6800        38
    41.7400        34
    41.8000        44
    41.8600        26
    41.9200        38
    41.9800        52
    42.0400        46
    42.1000        38
    42.1600        32
    42.2200        24
    42.2800        20
    42.3400        22
    42.4000        28
    42.4600        24
    42.5200        28
    42.5800        48
    42.6400        80
    42.7000        72
    42.7600        76
    42.8200        58
    42.8800        32
    42.9400        30
    43.0000        24
    43.0600        26
    43.1200        34
    43.1800        34
    43.2400        54
    43.3000        64
    43.3600        78
    43.4200       108
    43.4800        72
    43.5400        76
    43.6000       124
    43.6600        94
    43.7200        76
    43.7800        58
    43.8400        48
    43.9000        56
    43.9600        58
    44.0200        56
    44.0800        56
    44.1400        54
    44.2000        66
    44.2600        60
    44.3200        60
    44.3800        62
    44.4400       124
    44.5000       148
    44.5600        80
    44.6200        72
    44.6800        22
    44.7400        32
    44.8000        36
    44.8600        30
    44.9200        32
    44.9800        32
    45.0400        24
    45.1000        24
    45.1600        26
    45.2200        42
    45.2800        62
    45.3400        62
    45.4000        48
    45.4600        54
    45.5200        34
    45.5800        34
    45.6400        20
    45.7000        30
    45.7600        16
    45.8200        34
    45.8800        28
    45.9400        24
    46.0000        24
    46.0600        30
    46.1200        40
    46.1800        88
    46.2400       102
    46.3000        66
    46.3600        72
    46.4200        50
    46.4800        34
    46.5400        44
    46.6000        54
    46.6600        30
    46.7200        44
    46.7800        22
    46.8400        26
    46.9000        22
    46.9600        26
    47.0200        26
    47.0800        28
    47.1400        28
    47.2000        40
    47.2600        42
    47.3200        18
    47.3800        38
    47.4400        56
    47.5000        60
    47.5600        76
    47.6200        88
    47.6800        54
    47.7400        86
    47.8000       136
    47.8600        82
    47.9200       102
    47.9800        70
    48.0400        38
    48.1000        42
    48.1600        44
    48.2200        66
    48.2800       118
    48.3400       128
    48.4000       116
    48.4600       116
    48.5200       396
    48.5800       236
    48.6400       254
    48.7000       232
    48.7600       142
    48.8200       238
    48.8800       308
    48.9400       164
    49.0000       136
    49.0600        82
    49.1200        44
    49.1800        38
    49.2400        34
    49.3000        44
    49.3600        52
    49.4200        38
    49.4800        46
    49.5400        50
    49.6000        26
    49.6600        32
    49.7200        40
    49.7800        42
    49.8400        68
    49.9000       140
    49.9600       272
    50.0200       144
    50.0800       188
    50.1400       140
    50.2000       102
    50.2600       112
    50.3200       120
    50.3800       104
    50.4400        94
    50.5000        76
    50.5600        56
    50.6200        44
    50.6800        30
    50.7400        30
    50.8000        24
    50.8600        38
    50.9200        38
    50.9800        42
    51.0400        36
    51.1000        28
    51.1600        28
    51.2200        36
    51.2800        44
    51.3400        48
    51.4000        44
    51.4600        86
    51.5200       168
    51.5800       188
    51.6400       108
    51.7000       108
    51.7600        84
    51.8200        58
    51.8800       106
    51.9400       150
    52.0000       138
    52.0600        96
    52.1200        86
    52.1800        98
    52.2400       112
    52.3000        74
    52.3600        46
    52.4200        44
    52.4800        36
    52.5400        46
    52.6000        18
    52.6600        30
    52.7200        42
    52.7800        24
    52.8400        38
    52.9000        60
    52.9600       112
    53.0200       130
    53.0800       136
    53.1400        70
    53.2000        88
    53.2600        22
    53.3200        26
    53.3800        22
    53.4400        38
    53.5000        22
    53.5600        28
    53.6200        32
    53.6800        24
    53.7400        16
    53.8000        28
    53.8600        18
    53.9200        32
    53.9800        24
    54.0400        40
    54.1000        32
    54.1600        36
    54.2200        40
    54.2800        38
    54.3400        44
    54.4000        34
    54.4600        26
    54.5200        38
    54.5800        96
    54.6400        92
    54.7000        70
    54.7600        68
    54.8200        56
    54.8800        40
    54.9400        34
    55.0000        40
    55.0600        56
    55.1200        68
    55.1800        78
    55.2400        96
    55.3000       132
    55.3600       100
    55.4200        82
    55.4800        74
    55.5400        48
    55.6000        38
    55.6600        30
    55.7200        30
    55.7800        38
    55.8400        76
    55.9000        86
    55.9600        84
    56.0200        88
    56.0800        60
    56.1400        86
    56.2000        54
    56.2600        76
    56.3200        52
    56.3800        58
    56.4400        70
    56.5000        50
    56.5600        52
    56.6200        74
    56.6800       130
    56.7400       158
    56.8000       298
    56.8600       164
    56.9200       154
    56.9800       104
    57.0400        84
    57.1000        62
    57.1600        60
    57.2200        64
    57.2800        40
    57.3400        72
    57.4000        94
    57.4600        82
    57.5200        90
    57.5800       140
    57.6400       102
    57.7000        92
    57.7600       110
    57.8200        78
    57.8800        72
    57.9400        62
    58.0000        76
    58.0600        48
    58.1200        58
    58.1800        70
    58.2400        60
    58.3000        46
    58.3600        38
    58.4200        44
    58.4800        48
    58.5400        52
    58.6000        30
    58.6600        24
    58.7200        22
    58.7800        16
    58.8400        24
    58.9000        24
    58.9600        22
    59.0200        32
    59.0800        44
    59.1400        26
    59.2000        32
    59.2600        38
    59.3200        28
    59.3800        18
    59.4400        24
    59.5000        32
    59.5600        30
    59.6200        44
    59.6800        42
    59.7400        58
    59.8000        68
    59.8600        66
    59.9200        44
    59.9800        50
    60.0400        36
    60.1000        32
    60.1600        32
    60.2200        38
    60.2800        64
    60.3400        48
    60.4000        52
    60.4600        36
    60.5200        34
    60.5800        54
    60.6400        40
    60.7000        52
    60.7600        34
    60.8200        42
    60.8800        46
    60.9400        36
    61.0000        36
    61.0600        34
    61.1200        28
    61.1800        34
    61.2400        30
    61.3000        20
    61.3600        34
    61.4200        28
    61.4800        28
    61.5400        20
    61.6000        40
    61.6600        34
    61.7200        34
    61.7800        56
    61.8400        98
    61.9000        70
    61.9600        58
    62.0200        82
    62.0800        48
    62.1400        34
    62.2000        38
    62.2600        20
    62.3200        40
    62.3800        34
    62.4400        60
    62.5000        96
    62.5600        88
    62.6200        70
    62.6800        80
    62.7400        64
    62.8000        44
    62.8600        60
    62.9200        76
    62.9800        92
    63.0400        76
    63.1000        78
    63.1600       108
    63.2200       162
    63.2800       110
    63.3400        54
    63.4000       106
    63.4600        70
    63.5200        48
    63.5800        38
    63.6400        32
    63.7000        26
    63.7600        28
    63.8200        28
    63.8800        44
    63.9400        24
    64.0000        34
    64.0600        32
    64.1200        20
    64.1800        20
    64.2400        36
    64.3000        28
    64.3600        34
    64.4200        28
    64.4800        28
    64.5400        34
    64.6000        34
    64.6600        30
    64.7200        28
    64.7800        44
    64.8400        74
    64.9000        88
    64.9600        72
    65.0000        60