File: sl1/usgs/library06/DESCRIPT/new_xrd_results_to_be_added/Rhonda_Driscoll_xrd_runs/GDS739B.txt
/////////////////////////////////////////////////////////////////////////////////
/// Profile Data Ascii Dump (XRD)                                             ///
/////////////////////////////////////////////////////////////////////////////////

  Group     : Swayze
  Data      : GDS739B
  File Name : GDS739B.RAW

# Profile Datafile
          comment             =
          date & time         = 08-03-11 06:05:48

# Measurement Condition
    X-ray tube
          target              = Cu
          voltage             = 40.0 (kV)
          current             = 30.0 (mA)
    Slits
          divergence slit     = 2.00000 (deg)
          scatter slit        = 2.00000 (deg)
          receiving slit      = 0.15000 (mm)
    Scanning
          drive axis          = Theta-2Theta
          scan range          =    4.000 -   65.000
          scan mode           = Continuous Scan
          scan speed          =   2.0000 (deg/min)
          sampling pitch      =   0.0200 (deg)
          preset time         =   0.60 (sec)

# Data      [ Total No. = 3051 ]
  <2Theta>   <   I   >
     4.0000       186
     4.0600       202
     4.1200       214
     4.1800       208
     4.2400       188
     4.3000       186
     4.3600       176
     4.4200       190
     4.4800       200
     4.5400       184
     4.6000       178
     4.6600       188
     4.7200       180
     4.7800       186
     4.8400       166
     4.9000       176
     4.9600       184
     5.0200       172
     5.0800       144
     5.1400       162
     5.2000       158
     5.2600       172
     5.3200       150
     5.3800       158
     5.4400       156
     5.5000       160
     5.5600       160
     5.6200       152
     5.6800       168
     5.7400       150
     5.8000       152
     5.8600       170
     5.9200       152
     5.9800       176
     6.0400       168
     6.1000       156
     6.1600       172
     6.2200       160
     6.2800       150
     6.3400       176
     6.4000       148
     6.4600       138
     6.5200       150
     6.5800       136
     6.6400       144
     6.7000       162
     6.7600       124
     6.8200       148
     6.8800       132
     6.9400       136
     7.0000       134
     7.0600       126
     7.1200       130
     7.1800       126
     7.2400       118
     7.3000       126
     7.3600       126
     7.4200       122
     7.4800       128
     7.5400       104
     7.6000       134
     7.6600       118
     7.7200       116
     7.7800       134
     7.8400       120
     7.9000       112
     7.9600       106
     8.0200       110
     8.0800       126
     8.1400       124
     8.2000        78
     8.2600       124
     8.3200       128
     8.3800       104
     8.4400       132
     8.5000       122
     8.5600       116
     8.6200       108
     8.6800       136
     8.7400       144
     8.8000       126
     8.8600       124
     8.9200       128
     8.9800       132
     9.0400       108
     9.1000       118
     9.1600       104
     9.2200       110
     9.2800       124
     9.3400       144
     9.4000       122
     9.4600       124
     9.5200       138
     9.5800       118
     9.6400       120
     9.7000        96
     9.7600       136
     9.8200       110
     9.8800       118
     9.9400       108
    10.0000       106
    10.0600       118
    10.1200       128
    10.1800        92
    10.2400       114
    10.3000       112
    10.3600       114
    10.4200       112
    10.4800       100
    10.5400       104
    10.6000        98
    10.6600       112
    10.7200        92
    10.7800       112
    10.8400       110
    10.9000        96
    10.9600        92
    11.0200       102
    11.0800       106
    11.1400        84
    11.2000        84
    11.2600        94
    11.3200        88
    11.3800        92
    11.4400        82
    11.5000        96
    11.5600        94
    11.6200        88
    11.6800        90
    11.7400        96
    11.8000        90
    11.8600        80
    11.9200        78
    11.9800        86
    12.0400        76
    12.1000        72
    12.1600       106
    12.2200        94
    12.2800        92
    12.3400        88
    12.4000        76
    12.4600        86
    12.5200        80
    12.5800        76
    12.6400        84
    12.7000       100
    12.7600        78
    12.8200        94
    12.8800       108
    12.9400        84
    13.0000        54
    13.0600        88
    13.1200        78
    13.1800        82
    13.2400        84
    13.3000        96
    13.3600        66
    13.4200        66
    13.4800        78
    13.5400        82
    13.6000        86
    13.6600        88
    13.7200        82
    13.7800        64
    13.8400        68
    13.9000        50
    13.9600        58
    14.0200        50
    14.0800        62
    14.1400        64
    14.2000        64
    14.2600        78
    14.3200        60
    14.3800        58
    14.4400        68
    14.5000        84
    14.5600        70
    14.6200        74
    14.6800        70
    14.7400        80
    14.8000        70
    14.8600        74
    14.9200        72
    14.9800        68
    15.0400        84
    15.1000        68
    15.1600        78
    15.2200        68
    15.2800        76
    15.3400       104
    15.4000       112
    15.4600       122
    15.5200       146
    15.5800       202
    15.6400       224
    15.7000       194
    15.7600       116
    15.8200        70
    15.8800        60
    15.9400        62
    16.0000        78
    16.0600        62
    16.1200        66
    16.1800        80
    16.2400        82
    16.3000        66
    16.3600        52
    16.4200        62
    16.4800        74
    16.5400        66
    16.6000        70
    16.6600        70
    16.7200        70
    16.7800        74
    16.8400        78
    16.9000        80
    16.9600        82
    17.0200        64
    17.0800       100
    17.1400       108
    17.2000        94
    17.2600       104
    17.3200       146
    17.3800       216
    17.4400       302
    17.5000       368
    17.5600       522
    17.6200       646
    17.6800       822
    17.7400       908
    17.8000      1042
    17.8600      1064
    17.9200       968
    17.9800       786
    18.0400       462
    18.1000       244
    18.1600       172
    18.2200       108
    18.2800        96
    18.3400        78
    18.4000        70
    18.4600        84
    18.5200        74
    18.5800        52
    18.6400        66
    18.7000        64
    18.7600        54
    18.8200        58
    18.8800        56
    18.9400        58
    19.0000        62
    19.0600        46
    19.1200        48
    19.1800        56
    19.2400        48
    19.3000        44
    19.3600        38
    19.4200        58
    19.4800        50
    19.5400        54
    19.6000        58
    19.6600        56
    19.7200        44
    19.7800        56
    19.8400        42
    19.9000        44
    19.9600        46
    20.0200        54
    20.0800        44
    20.1400        40
    20.2000        44
    20.2600        46
    20.3200        50
    20.3800        42
    20.4400        54
    20.5000        50
    20.5600        52
    20.6200        58
    20.6800        52
    20.7400        58
    20.8000        46
    20.8600        42
    20.9200        30
    20.9800        58
    21.0400        40
    21.1000        38
    21.1600        38
    21.2200        38
    21.2800        48
    21.3400        42
    21.4000        44
    21.4600        42
    21.5200        46
    21.5800        50
    21.6400        54
    21.7000        56
    21.7600        40
    21.8200        36
    21.8800        48
    21.9400        38
    22.0000        44
    22.0600        58
    22.1200        46
    22.1800        40
    22.2400        50
    22.3000        42
    22.3600        36
    22.4200        32
    22.4800        42
    22.5400        50
    22.6000        62
    22.6600        50
    22.7200        88
    22.7800        88
    22.8400        98
    22.9000        68
    22.9600        56
    23.0200        54
    23.0800        36
    23.1400        62
    23.2000        52
    23.2600        38
    23.3200        56
    23.3800        58
    23.4400        38
    23.5000        62
    23.5600        48
    23.6200        42
    23.6800        58
    23.7400        42
    23.8000        42
    23.8600        50
    23.9200        54
    23.9800        40
    24.0400        62
    24.1000        56
    24.1600        64
    24.2200        72
    24.2800        56
    24.3400        64
    24.4000        64
    24.4600        70
    24.5200        64
    24.5800        76
    24.6400        80
    24.7000        76
    24.7600        96
    24.8200       106
    24.8800       108
    24.9400       114
    25.0000       150
    25.0600       284
    25.1200       386
    25.1800       632
    25.2400      1050
    25.3000      1368
    25.3600      1236
    25.4200       872
    25.4800       318
    25.5400       176
    25.6000       140
    25.6600        94
    25.7200        76
    25.7800        66
    25.8400        70
    25.9000        66
    25.9600        56
    26.0200        50
    26.0800        56
    26.1400        50
    26.2000        70
    26.2600        38
    26.3200        54
    26.3800        50
    26.4400        66
    26.5000        56
    26.5600        56
    26.6200        52
    26.6800        34
    26.7400        42
    26.8000        32
    26.8600        54
    26.9200        34
    26.9800        42
    27.0400        52
    27.1000        50
    27.1600        50
    27.2200        34
    27.2800        60
    27.3400        32
    27.4000        46
    27.4600        46
    27.5200        42
    27.5800        40
    27.6400        54
    27.7000        56
    27.7600        36
    27.8200        40
    27.8800        48
    27.9400        56
    28.0000        68
    28.0600        44
    28.1200        44
    28.1800        50
    28.2400        56
    28.3000        68
    28.3600        50
    28.4200        80
    28.4800        72
    28.5400        78
    28.6000        74
    28.6600        80
    28.7200        92
    28.7800       110
    28.8400       136
    28.9000       160
    28.9600       228
    29.0200       230
    29.0800       278
    29.1400       312
    29.2000       376
    29.2600       344
    29.3200       380
    29.3800       398
    29.4400       410
    29.5000       490
    29.5600       520
    29.6200       574
    29.6800       658
    29.7400       756
    29.8000       826
    29.8600       896
    29.9200       890
    29.9800       918
    30.0400       836
    30.1000       752
    30.1600       600
    30.2200       476
    30.2800       376
    30.3400       284
    30.4000       190
    30.4600       136
    30.5200       120
    30.5800        88
    30.6400        80
    30.7000        76
    30.7600        54
    30.8200        52
    30.8800        54
    30.9400        58
    31.0000        90
    31.0600       132
    31.1200       198
    31.1800       314
    31.2400       390
    31.3000       326
    31.3600       190
    31.4200       106
    31.4800        94
    31.5400        92
    31.6000        84
    31.6600       122
    31.7200       122
    31.7800       110
    31.8400       122
    31.9000        84
    31.9600        58
    32.0200        50
    32.0800        36
    32.1400        48
    32.2000        30
    32.2600        38
    32.3200        32
    32.3800        32
    32.4400        36
    32.5000        28
    32.5600        44
    32.6200        40
    32.6800        36
    32.7400        38
    32.8000        36
    32.8600        40
    32.9200        28
    32.9800        38
    33.0400        32
    33.1000        36
    33.1600        46
    33.2200        34
    33.2800        18
    33.3400        30
    33.4000        32
    33.4600        44
    33.5200        38
    33.5800        28
    33.6400        28
    33.7000        42
    33.7600        28
    33.8200        32
    33.8800        26
    33.9400        28
    34.0000        40
    34.0600        30
    34.1200        28
    34.1800        26
    34.2400        36
    34.3000        24
    34.3600        32
    34.4200        30
    34.4800        38
    34.5400        26
    34.6000        36
    34.6600        36
    34.7200        32
    34.7800        32
    34.8400        38
    34.9000        26
    34.9600        28
    35.0200        40
    35.0800        22
    35.1400        32
    35.2000        32
    35.2600        30
    35.3200        24
    35.3800        36
    35.4400        26
    35.5000        36
    35.5600        30
    35.6200        44
    35.6800        40
    35.7400        38
    35.8000        40
    35.8600        42
    35.9200        60
    35.9800        58
    36.0400        98
    36.1000       110
    36.1600       122
    36.2200       134
    36.2800        78
    36.3400        48
    36.4000        48
    36.4600        26
    36.5200        38
    36.5800        36
    36.6400        40
    36.7000        34
    36.7600        34
    36.8200        22
    36.8800        30
    36.9400        24
    37.0000        26
    37.0600        28
    37.1200        26
    37.1800        34
    37.2400        32
    37.3000        24
    37.3600        32
    37.4200        30
    37.4800        22
    37.5400        28
    37.6000        30
    37.6600        26
    37.7200        26
    37.7800        52
    37.8400        30
    37.9000        34
    37.9600        36
    38.0200        30
    38.0800        36
    38.1400        44
    38.2000        58
    38.2600        54
    38.3200        68
    38.3800        96
    38.4400       170
    38.5000       228
    38.5600       226
    38.6200       180
    38.6800       136
    38.7400        58
    38.8000        38
    38.8600        32
    38.9200        36
    38.9800        32
    39.0400        32
    39.1000        30
    39.1600        50
    39.2200        34
    39.2800        52
    39.3400        38
    39.4000        58
    39.4600        38
    39.5200        46
    39.5800        34
    39.6400        54
    39.7000        82
    39.7600       102
    39.8200       148
    39.8800       204
    39.9400       304
    40.0000       336
    40.0600       348
    40.1200       402
    40.1800       360
    40.2400       246
    40.3000       196
    40.3600       158
    40.4200       142
    40.4800       134
    40.5400       160
    40.6000       190
    40.6600       236
    40.7200       284
    40.7800       248
    40.8400       144
    40.9000        96
    40.9600        74
    41.0200        72
    41.0800        70
    41.1400       114
    41.2000       128
    41.2600       110
    41.3200        78
    41.3800        60
    41.4400        42
    41.5000        28
    41.5600        32
    41.6200        36
    41.6800        32
    41.7400        34
    41.8000        26
    41.8600        34
    41.9200        26
    41.9800        20
    42.0400        40
    42.1000        32
    42.1600        30
    42.2200        30
    42.2800        26
    42.3400        42
    42.4000        36
    42.4600        34
    42.5200        40
    42.5800        30
    42.6400        32
    42.7000        44
    42.7600        40
    42.8200        38
    42.8800        50
    42.9400        34
    43.0000        28
    43.0600        56
    43.1200        86
    43.1800       108
    43.2400       108
    43.3000        96
    43.3600        68
    43.4200        38
    43.4800        34
    43.5400        26
    43.6000        24
    43.6600        32
    43.7200        36
    43.7800        28
    43.8400        30
    43.9000        28
    43.9600        32
    44.0200        26
    44.0800        16
    44.1400        32
    44.2000        28
    44.2600        34
    44.3200        22
    44.3800        28
    44.4400        38
    44.5000        18
    44.5600        34
    44.6200        30
    44.6800        24
    44.7400        44
    44.8000        30
    44.8600        22
    44.9200        34
    44.9800        42
    45.0400        40
    45.1000        36
    45.1600        58
    45.2200        52
    45.2800        76
    45.3400        88
    45.4000        90
    45.4600        66
    45.5200        52
    45.5800        34
    45.6400        32
    45.7000        26
    45.7600        36
    45.8200        36
    45.8800        24
    45.9400        36
    46.0000        50
    46.0600        44
    46.1200        52
    46.1800        52
    46.2400        66
    46.3000        62
    46.3600        58
    46.4200        84
    46.4800        54
    46.5400        94
    46.6000       128
    46.6600       146
    46.7200       152
    46.7800       166
    46.8400       134
    46.9000       130
    46.9600       102
    47.0200       122
    47.0800        90
    47.1400        92
    47.2000       100
    47.2600       104
    47.3200       104
    47.3800       124
    47.4400       132
    47.5000       138
    47.5600       132
    47.6200       174
    47.6800       166
    47.7400       192
    47.8000       190
    47.8600       198
    47.9200       164
    47.9800       148
    48.0400       148
    48.1000       154
    48.1600       120
    48.2200       158
    48.2800       146
    48.3400       174
    48.4000       198
    48.4600       270
    48.5200       304
    48.5800       314
    48.6400       222
    48.7000       170
    48.7600       132
    48.8200        70
    48.8800        64
    48.9400        54
    49.0000        74
    49.0600        82
    49.1200        76
    49.1800        56
    49.2400        44
    49.3000        26
    49.3600        34
    49.4200        42
    49.4800        30
    49.5400        36
    49.6000        34
    49.6600        30
    49.7200        32
    49.7800        28
    49.8400        26
    49.9000        48
    49.9600        34
    50.0200        36
    50.0800        40
    50.1400        40
    50.2000        24
    50.2600        32
    50.3200        40
    50.3800        40
    50.4400        48
    50.5000        34
    50.5600        40
    50.6200        40
    50.6800        38
    50.7400        42
    50.8000        48
    50.8600        34
    50.9200        50
    50.9800        58
    51.0400        66
    51.1000        76
    51.1600        58
    51.2200        62
    51.2800        54
    51.3400        62
    51.4000        50
    51.4600        62
    51.5200        46
    51.5800        46
    51.6400        56
    51.7000        48
    51.7600        52
    51.8200        64
    51.8800        94
    51.9400       106
    52.0000       126
    52.0600       162
    52.1200       248
    52.1800       266
    52.2400       246
    52.3000       158
    52.3600       126
    52.4200       124
    52.4800       102
    52.5400        94
    52.6000        92
    52.6600        72
    52.7200        66
    52.7800        68
    52.8400        50
    52.9000        54
    52.9600        68
    53.0200        52
    53.0800        52
    53.1400        50
    53.2000        40
    53.2600        42
    53.3200        42
    53.3800        42
    53.4400        42
    53.5000        32
    53.5600        38
    53.6200        30
    53.6800        36
    53.7400        40
    53.8000        28
    53.8600        36
    53.9200        48
    53.9800        48
    54.0400        46
    54.1000        40
    54.1600        34
    54.2200        46
    54.2800        32
    54.3400        40
    54.4000        38
    54.4600        36
    54.5200        50
    54.5800        42
    54.6400        30
    54.7000        40
    54.7600        34
    54.8200        42
    54.8800        38
    54.9400        46
    55.0000        56
    55.0600        50
    55.1200        64
    55.1800        58
    55.2400        62
    55.3000        68
    55.3600        70
    55.4200        82
    55.4800       100
    55.5400       146
    55.6000       220
    55.6600       228
    55.7200       148
    55.7800       126
    55.8400        92
    55.9000        62
    55.9600        64
    56.0200        46
    56.0800        38
    56.1400        44
    56.2000        48
    56.2600        38
    56.3200        34
    56.3800        50
    56.4400        40
    56.5000        42
    56.5600        50
    56.6200        42
    56.6800        44
    56.7400        38
    56.8000        22
    56.8600        40
    56.9200        36
    56.9800        38
    57.0400        28
    57.1000        34
    57.1600        36
    57.2200        38
    57.2800        42
    57.3400        40
    57.4000        38
    57.4600        38
    57.5200        48
    57.5800        68
    57.6400        64
    57.7000        66
    57.7600        46
    57.8200        36
    57.8800        42
    57.9400        34
    58.0000        38
    58.0600        34
    58.1200        42
    58.1800        28
    58.2400        36
    58.3000        40
    58.3600        48
    58.4200        44
    58.4800        52
    58.5400        58
    58.6000        62
    58.6600        76
    58.7200        78
    58.7800        78
    58.8400       102
    58.9000       114
    58.9600        94
    59.0200       106
    59.0800        92
    59.1400        80
    59.2000        80
    59.2600        80
    59.3200        68
    59.3800        98
    59.4400        74
    59.5000        78
    59.5600        78
    59.6200        60
    59.6800        58
    59.7400        58
    59.8000        72
    59.8600        52
    59.9200        66
    59.9800        46
    60.0400        54
    60.1000        38
    60.1600        34
    60.2200        46
    60.2800        36
    60.3400        50
    60.4000        36
    60.4600        46
    60.5200        62
    60.5800        88
    60.6400        66
    60.7000        78
    60.7600        62
    60.8200        54
    60.8800        50
    60.9400        58
    61.0000        66
    61.0600        68
    61.1200        62
    61.1800        50
    61.2400        68
    61.3000        56
    61.3600        56
    61.4200        66
    61.4800        44
    61.5400        76
    61.6000        52
    61.6600        62
    61.7200        56
    61.7800        56
    61.8400        64
    61.9000        48
    61.9600        72
    62.0200        86
    62.0800        94
    62.1400       130
    62.2000       120
    62.2600       102
    62.3200       102
    62.3800       108
    62.4400        96
    62.5000       126
    62.5600       136
    62.6200       140
    62.6800       180
    62.7400       184
    62.8000       188
    62.8600       184
    62.9200       176
    62.9800       172
    63.0400       144
    63.1000       126
    63.1600       134
    63.2200       114
    63.2800        72
    63.3400        78
    63.4000        72
    63.4600        46
    63.5200        48
    63.5800        54
    63.6400        56
    63.7000        44
    63.7600        42
    63.8200        42
    63.8800        44
    63.9400        40
    64.0000        32
    64.0600        36
    64.1200        30
    64.1800        40
    64.2400        30
    64.3000        40
    64.3600        38
    64.4200        36
    64.4800        36
    64.5400        42
    64.6000        38
    64.6600        38
    64.7200        38
    64.7800        22
    64.8400        36
    64.9000        42
    64.9600        36
    65.0000        28