File: sl1/usgs/library06/DESCRIPT/new_xrd_results_to_be_added/Rhonda_Driscoll_xrd_runs/GDS822.txt
/////////////////////////////////////////////////////////////////////////////////
/// Profile Data Ascii Dump (XRD)                                             ///
/////////////////////////////////////////////////////////////////////////////////

  Group     : Swayze
  Data      : GDS822
  File Name : GDS822.RAW

# Profile Datafile
          comment             =
          date & time         = 08-03-11 06:36:46

# Measurement Condition
    X-ray tube
          target              = Cu
          voltage             = 40.0 (kV)
          current             = 30.0 (mA)
    Slits
          divergence slit     = 2.00000 (deg)
          scatter slit        = 2.00000 (deg)
          receiving slit      = 0.15000 (mm)
    Scanning
          drive axis          = Theta-2Theta
          scan range          =    4.000 -   65.000
          scan mode           = Continuous Scan
          scan speed          =   2.0000 (deg/min)
          sampling pitch      =   0.0200 (deg)
          preset time         =   0.60 (sec)

# Data      [ Total No. = 3051 ]
  <2Theta>   <   I   >
     4.0000       170
     4.0600       182
     4.1200       144
     4.1800       176
     4.2400       184
     4.3000       194
     4.3600       186
     4.4200       172
     4.4800       164
     4.5400       186
     4.6000       172
     4.6600       168
     4.7200       166
     4.7800       160
     4.8400       156
     4.9000       164
     4.9600       156
     5.0200       168
     5.0800       168
     5.1400       162
     5.2000       160
     5.2600       162
     5.3200       168
     5.3800       170
     5.4400       160
     5.5000       158
     5.5600       170
     5.6200       156
     5.6800       170
     5.7400       166
     5.8000       174
     5.8600       154
     5.9200       162
     5.9800       124
     6.0400       168
     6.1000       176
     6.1600       148
     6.2200       174
     6.2800       156
     6.3400       132
     6.4000       148
     6.4600       158
     6.5200       112
     6.5800       142
     6.6400       130
     6.7000       120
     6.7600       140
     6.8200       128
     6.8800       116
     6.9400       148
     7.0000       130
     7.0600       124
     7.1200       108
     7.1800       118
     7.2400       112
     7.3000       138
     7.3600       134
     7.4200       118
     7.4800       136
     7.5400       124
     7.6000       120
     7.6600       120
     7.7200       128
     7.7800       132
     7.8400       126
     7.9000       128
     7.9600       114
     8.0200       114
     8.0800       112
     8.1400       136
     8.2000       132
     8.2600       112
     8.3200       126
     8.3800        98
     8.4400       126
     8.5000       116
     8.5600       132
     8.6200       126
     8.6800       108
     8.7400       112
     8.8000       120
     8.8600       148
     8.9200       108
     8.9800       120
     9.0400       116
     9.1000       124
     9.1600       136
     9.2200       106
     9.2800        98
     9.3400       144
     9.4000       132
     9.4600       104
     9.5200       106
     9.5800       112
     9.6400       120
     9.7000       140
     9.7600       102
     9.8200       114
     9.8800        96
     9.9400        96
    10.0000        94
    10.0600       122
    10.1200       122
    10.1800       126
    10.2400        98
    10.3000        98
    10.3600       112
    10.4200        98
    10.4800        96
    10.5400       122
    10.6000        92
    10.6600       112
    10.7200        76
    10.7800        88
    10.8400        92
    10.9000        92
    10.9600       110
    11.0200       102
    11.0800        86
    11.1400       102
    11.2000        80
    11.2600        80
    11.3200       100
    11.3800        80
    11.4400        92
    11.5000       100
    11.5600        92
    11.6200        96
    11.6800        64
    11.7400       104
    11.8000        68
    11.8600        98
    11.9200        92
    11.9800        72
    12.0400        94
    12.1000       102
    12.1600        72
    12.2200        98
    12.2800        92
    12.3400        70
    12.4000        92
    12.4600        92
    12.5200        98
    12.5800        76
    12.6400        78
    12.7000        84
    12.7600        84
    12.8200        72
    12.8800        94
    12.9400        76
    13.0000        70
    13.0600        86
    13.1200        80
    13.1800        72
    13.2400        80
    13.3000        62
    13.3600        72
    13.4200        76
    13.4800        80
    13.5400        72
    13.6000        76
    13.6600        68
    13.7200        78
    13.7800        66
    13.8400        68
    13.9000        60
    13.9600        56
    14.0200        68
    14.0800        78
    14.1400        76
    14.2000        70
    14.2600        64
    14.3200        66
    14.3800        76
    14.4400        72
    14.5000        60
    14.5600        68
    14.6200        58
    14.6800        62
    14.7400        80
    14.8000        76
    14.8600        58
    14.9200        80
    14.9800        62
    15.0400        70
    15.1000        64
    15.1600        62
    15.2200        74
    15.2800        92
    15.3400        96
    15.4000       136
    15.4600       122
    15.5200        92
    15.5800        64
    15.6400        64
    15.7000        56
    15.7600        62
    15.8200        62
    15.8800        54
    15.9400        68
    16.0000        56
    16.0600        74
    16.1200        44
    16.1800        40
    16.2400        60
    16.3000        70
    16.3600        54
    16.4200        68
    16.4800        62
    16.5400        52
    16.6000        56
    16.6600        68
    16.7200        50
    16.7800        68
    16.8400        42
    16.9000        44
    16.9600        66
    17.0200        50
    17.0800        62
    17.1400        66
    17.2000        74
    17.2600        74
    17.3200        72
    17.3800        74
    17.4400        90
    17.5000       114
    17.5600       134
    17.6200       174
    17.6800       288
    17.7400       458
    17.8000       738
    17.8600       762
    17.9200       500
    17.9800       384
    18.0400       222
    18.1000       110
    18.1600        86
    18.2200        62
    18.2800        82
    18.3400        54
    18.4000        58
    18.4600        60
    18.5200        40
    18.5800        58
    18.6400        62
    18.7000        58
    18.7600        52
    18.8200        48
    18.8800        58
    18.9400        54
    19.0000        58
    19.0600        56
    19.1200        42
    19.1800        46
    19.2400        42
    19.3000        66
    19.3600        46
    19.4200        48
    19.4800        50
    19.5400        50
    19.6000        58
    19.6600        38
    19.7200        42
    19.7800        48
    19.8400        46
    19.9000        58
    19.9600        48
    20.0200        48
    20.0800        44
    20.1400        56
    20.2000        46
    20.2600        50
    20.3200        50
    20.3800        68
    20.4400        36
    20.5000        44
    20.5600        54
    20.6200        44
    20.6800        56
    20.7400        42
    20.8000        42
    20.8600        38
    20.9200        38
    20.9800        34
    21.0400        52
    21.1000        42
    21.1600        50
    21.2200        50
    21.2800        52
    21.3400        34
    21.4000        54
    21.4600        54
    21.5200        56
    21.5800        30
    21.6400        28
    21.7000        36
    21.7600        46
    21.8200        58
    21.8800        44
    21.9400        32
    22.0000        42
    22.0600        38
    22.1200        34
    22.1800        34
    22.2400        38
    22.3000        58
    22.3600        62
    22.4200        38
    22.4800        38
    22.5400        44
    22.6000        48
    22.6600        46
    22.7200        92
    22.7800       112
    22.8400       102
    22.9000        64
    22.9600        54
    23.0200        44
    23.0800        50
    23.1400        48
    23.2000        46
    23.2600        42
    23.3200        56
    23.3800        36
    23.4400        34
    23.5000        40
    23.5600        46
    23.6200        52
    23.6800        46
    23.7400        48
    23.8000        36
    23.8600        52
    23.9200        40
    23.9800        52
    24.0400        48
    24.1000        72
    24.1600        64
    24.2200        66
    24.2800        64
    24.3400        54
    24.4000        50
    24.4600        58
    24.5200        62
    24.5800        60
    24.6400        68
    24.7000        76
    24.7600        76
    24.8200        92
    24.8800       110
    24.9400       166
    25.0000       232
    25.0600       420
    25.1200       678
    25.1800      1328
    25.2400      2756
    25.3000      4276
    25.3600      3874
    25.4200      1816
    25.4800       590
    25.5400       202
    25.6000       150
    25.6600       110
    25.7200        82
    25.7800        72
    25.8400        58
    25.9000        78
    25.9600        42
    26.0200        44
    26.0800        36
    26.1400        40
    26.2000        44
    26.2600        50
    26.3200        38
    26.3800        38
    26.4400        42
    26.5000        40
    26.5600        46
    26.6200        38
    26.6800        42
    26.7400        54
    26.8000        46
    26.8600        48
    26.9200        38
    26.9800        32
    27.0400        46
    27.1000        46
    27.1600        40
    27.2200        36
    27.2800        40
    27.3400        38
    27.4000        38
    27.4600        40
    27.5200        44
    27.5800        48
    27.6400        42
    27.7000        30
    27.7600        38
    27.8200        36
    27.8800        32
    27.9400        28
    28.0000        34
    28.0600        50
    28.1200        36
    28.1800        24
    28.2400        38
    28.3000        40
    28.3600        44
    28.4200        38
    28.4800        54
    28.5400        40
    28.6000        32
    28.6600        36
    28.7200        30
    28.7800        46
    28.8400        40
    28.9000        46
    28.9600        56
    29.0200        38
    29.0800        48
    29.1400        50
    29.2000        44
    29.2600        36
    29.3200        66
    29.3800        68
    29.4400        68
    29.5000       118
    29.5600       138
    29.6200       248
    29.6800       518
    29.7400      1022
    29.8000      1462
    29.8600      1460
    29.9200      1098
    29.9800       786
    30.0400       622
    30.1000       372
    30.1600       276
    30.2200       154
    30.2800       106
    30.3400        98
    30.4000        70
    30.4600        64
    30.5200        46
    30.5800        46
    30.6400        34
    30.7000        50
    30.7600        28
    30.8200        32
    30.8800        42
    30.9400        42
    31.0000        56
    31.0600        60
    31.1200        96
    31.1800       214
    31.2400       232
    31.3000       194
    31.3600       120
    31.4200        62
    31.4800        48
    31.5400        42
    31.6000        58
    31.6600        58
    31.7200        78
    31.7800       118
    31.8400       120
    31.9000        94
    31.9600        56
    32.0200        42
    32.0800        38
    32.1400        50
    32.2000        32
    32.2600        22
    32.3200        48
    32.3800        22
    32.4400        28
    32.5000        28
    32.5600        28
    32.6200        26
    32.6800        32
    32.7400        24
    32.8000        26
    32.8600        30
    32.9200        24
    32.9800        28
    33.0400        32
    33.1000        26
    33.1600        26
    33.2200        20
    33.2800        28
    33.3400        32
    33.4000        28
    33.4600        28
    33.5200        24
    33.5800        24
    33.6400        22
    33.7000        28
    33.7600        34
    33.8200        28
    33.8800        18
    33.9400        36
    34.0000        34
    34.0600        30
    34.1200        24
    34.1800        26
    34.2400        26
    34.3000        26
    34.3600        16
    34.4200        28
    34.4800        28
    34.5400        18
    34.6000        28
    34.6600        32
    34.7200        26
    34.7800        28
    34.8400        36
    34.9000        34
    34.9600        24
    35.0200        34
    35.0800        32
    35.1400        16
    35.2000        24
    35.2600        24
    35.3200        30
    35.3800        34
    35.4400        28
    35.5000        24
    35.5600        28
    35.6200        20
    35.6800        30
    35.7400        30
    35.8000        30
    35.8600        42
    35.9200        46
    35.9800        74
    36.0400       110
    36.1000       206
    36.1600       304
    36.2200       216
    36.2800       170
    36.3400        82
    36.4000        44
    36.4600        52
    36.5200        38
    36.5800        34
    36.6400        34
    36.7000        36
    36.7600        28
    36.8200        30
    36.8800        30
    36.9400        28
    37.0000        38
    37.0600        32
    37.1200        30
    37.1800        24
    37.2400        30
    37.3000        36
    37.3600        30
    37.4200        30
    37.4800        32
    37.5400        30
    37.6000        20
    37.6600        26
    37.7200        34
    37.7800        22
    37.8400        42
    37.9000        24
    37.9600        40
    38.0200        42
    38.0800        30
    38.1400        34
    38.2000        42
    38.2600        34
    38.3200        50
    38.3800        78
    38.4400       134
    38.5000       142
    38.5600       158
    38.6200        84
    38.6800        62
    38.7400        36
    38.8000        30
    38.8600        34
    38.9200        30
    38.9800        30
    39.0400        26
    39.1000        36
    39.1600        30
    39.2200        28
    39.2800        38
    39.3400        34
    39.4000        62
    39.4600        78
    39.5200       124
    39.5800       188
    39.6400       234
    39.7000       218
    39.7600       174
    39.8200       132
    39.8800       114
    39.9400       106
    40.0000        84
    40.0600        84
    40.1200       100
    40.1800       108
    40.2400        86
    40.3000       104
    40.3600       114
    40.4200       128
    40.4800       140
    40.5400       142
    40.6000       182
    40.6600       246
    40.7200       198
    40.7800       194
    40.8400       114
    40.9000        68
    40.9600        62
    41.0200        82
    41.0800       116
    41.1400       176
    41.2000       170
    41.2600       136
    41.3200        96
    41.3800        64
    41.4400        16
    41.5000        40
    41.5600        32
    41.6200        44
    41.6800        28
    41.7400        30
    41.8000        20
    41.8600        24
    41.9200        26
    41.9800        30
    42.0400        28
    42.1000        20
    42.1600        26
    42.2200        22
    42.2800        22
    42.3400        26
    42.4000        44
    42.4600        22
    42.5200        20
    42.5800        28
    42.6400        26
    42.7000        28
    42.7600        28
    42.8200        36
    42.8800        36
    42.9400        40
    43.0000        34
    43.0600        64
    43.1200       114
    43.1800       198
    43.2400       204
    43.3000       172
    43.3600       112
    43.4200        70
    43.4800        28
    43.5400        18
    43.6000        34
    43.6600        36
    43.7200        34
    43.7800        30
    43.8400        34
    43.9000        28
    43.9600        20
    44.0200        26
    44.0800        22
    44.1400        22
    44.2000        22
    44.2600        28
    44.3200        16
    44.3800        30
    44.4400        26
    44.5000        22
    44.5600        28
    44.6200        10
    44.6800        30
    44.7400        14
    44.8000        22
    44.8600        26
    44.9200        20
    44.9800        24
    45.0400        34
    45.1000        34
    45.1600        30
    45.2200        38
    45.2800        48
    45.3400        48
    45.4000        54
    45.4600        56
    45.5200        28
    45.5800        32
    45.6400        22
    45.7000        30
    45.7600        24
    45.8200        28
    45.8800        34
    45.9400        24
    46.0000        26
    46.0600        32
    46.1200        38
    46.1800        18
    46.2400        20
    46.3000        28
    46.3600        30
    46.4200        30
    46.4800        18
    46.5400        30
    46.6000        36
    46.6600        44
    46.7200        64
    46.7800        48
    46.8400        46
    46.9000        40
    46.9600        40
    47.0200        24
    47.0800        26
    47.1400        40
    47.2000        36
    47.2600        52
    47.3200        48
    47.3800        78
    47.4400       114
    47.5000       212
    47.5600       300
    47.6200       378
    47.6800       398
    47.7400       344
    47.8000       338
    47.8600       250
    47.9200       160
    47.9800       124
    48.0400        92
    48.1000        76
    48.1600        54
    48.2200        56
    48.2800        68
    48.3400        56
    48.4000        68
    48.4600       120
    48.5200       214
    48.5800       236
    48.6400       156
    48.7000       120
    48.7600        82
    48.8200        56
    48.8800        74
    48.9400       102
    49.0000       122
    49.0600       112
    49.1200        74
    49.1800        62
    49.2400        36
    49.3000        42
    49.3600        22
    49.4200        34
    49.4800        38
    49.5400        32
    49.6000        34
    49.6600        20
    49.7200        24
    49.7800        34
    49.8400        36
    49.9000        28
    49.9600        34
    50.0200        30
    50.0800        24
    50.1400        28
    50.2000        24
    50.2600        22
    50.3200        26
    50.3800        28
    50.4400        32
    50.5000        30
    50.5600        20
    50.6200        36
    50.6800        24
    50.7400        20
    50.8000        34
    50.8600        20
    50.9200        32
    50.9800        20
    51.0400        24
    51.1000        20
    51.1600        28
    51.2200        32
    51.2800        32
    51.3400        24
    51.4000        24
    51.4600        36
    51.5200        26
    51.5800        38
    51.6400        26
    51.7000        38
    51.7600        34
    51.8200        70
    51.8800        68
    51.9400       134
    52.0000       308
    52.0600       546
    52.1200       614
    52.1800       650
    52.2400       516
    52.3000       374
    52.3600       216
    52.4200       120
    52.4800        70
    52.5400        54
    52.6000        40
    52.6600        50
    52.7200        36
    52.7800        28
    52.8400        34
    52.9000        36
    52.9600        36
    53.0200        24
    53.0800        34
    53.1400        22
    53.2000        34
    53.2600        32
    53.3200        24
    53.3800        36
    53.4400        20
    53.5000        34
    53.5600        24
    53.6200        26
    53.6800        16
    53.7400        20
    53.8000        34
    53.8600        26
    53.9200        20
    53.9800        18
    54.0400        30
    54.1000        26
    54.1600        28
    54.2200        20
    54.2800        24
    54.3400        30
    54.4000        16
    54.4600        20
    54.5200        24
    54.5800        30
    54.6400        34
    54.7000        36
    54.7600        34
    54.8200        42
    54.8800        40
    54.9400        32
    55.0000        28
    55.0600        28
    55.1200        42
    55.1800        42
    55.2400        26
    55.3000        48
    55.3600        28
    55.4200        84
    55.4800       112
    55.5400       208
    55.6000       272
    55.6600       216
    55.7200       158
    55.7800       128
    55.8400       102
    55.9000        66
    55.9600        48
    56.0200        44
    56.0800        34
    56.1400        40
    56.2000        32
    56.2600        28
    56.3200        24
    56.3800        26
    56.4400        26
    56.5000        16
    56.5600        26
    56.6200        32
    56.6800        20
    56.7400        38
    56.8000        22
    56.8600        24
    56.9200        24
    56.9800        22
    57.0400        26
    57.1000        20
    57.1600        30
    57.2200        38
    57.2800        24
    57.3400        32
    57.4000        32
    57.4600        40
    57.5200        52
    57.5800        66
    57.6400        62
    57.7000        76
    57.7600        54
    57.8200        50
    57.8800        48
    57.9400        30
    58.0000        24
    58.0600        26
    58.1200        24
    58.1800        40
    58.2400        38
    58.3000        34
    58.3600        26
    58.4200        36
    58.4800        34
    58.5400        28
    58.6000        32
    58.6600        56
    58.7200        86
    58.7800       130
    58.8400       174
    58.9000       188
    58.9600       190
    59.0200       142
    59.0800       114
    59.1400        78
    59.2000        52
    59.2600        68
    59.3200        56
    59.3800        34
    59.4400        42
    59.5000        40
    59.5600        46
    59.6200        28
    59.6800        32
    59.7400        32
    59.8000        42
    59.8600        38
    59.9200        44
    59.9800        20
    60.0400        20
    60.1000        26
    60.1600        28
    60.2200        30
    60.2800        28
    60.3400        44
    60.4000        36
    60.4600        40
    60.5200        56
    60.5800        62
    60.6400        70
    60.7000        58
    60.7600        36
    60.8200        28
    60.8800        28
    60.9400        24
    61.0000        32
    61.0600        38
    61.1200        46
    61.1800        58
    61.2400        66
    61.3000        68
    61.3600        60
    61.4200        58
    61.4800        48
    61.5400        58
    61.6000        40
    61.6600        48
    61.7200        50
    61.7800        26
    61.8400        62
    61.9000        70
    61.9600       114
    62.0200       124
    62.0800       192
    62.1400       208
    62.2000       218
    62.2600       192
    62.3200       182
    62.3800       116
    62.4400       102
    62.5000        90
    62.5600        84
    62.6200        66
    62.6800        68
    62.7400        82
    62.8000        60
    62.8600        48
    62.9200        48
    62.9800        38
    63.0400        54
    63.1000        76
    63.1600        48
    63.2200        64
    63.2800        64
    63.3400        38
    63.4000        58
    63.4600        46
    63.5200        50
    63.5800        60
    63.6400        26
    63.7000        24
    63.7600        28
    63.8200        36
    63.8800        32
    63.9400        28
    64.0000        18
    64.0600        28
    64.1200        20
    64.1800        24
    64.2400        26
    64.3000        30
    64.3600        36
    64.4200        36
    64.4800        24
    64.5400        18
    64.6000        24
    64.6600        34
    64.7200        30
    64.7800        24
    64.8400        28
    64.9000        22
    64.9600        30
    65.0000        24