File: sl1/usgs/library06/DESCRIPT/new_xrd_results_to_be_added/Rhonda_Driscoll_xrd_runs/GDS817---Allophane.txt
/////////////////////////////////////////////////////////////////////////////////
/// Profile Data Ascii Dump (XRD)                                             ///
/////////////////////////////////////////////////////////////////////////////////

  Group     : Swayze
  Data      : GDS817
  File Name : GDS817.RAW

# Profile Datafile
          comment             = Allophane
          date & time         = 08-03-12 08:02:14

# Measurement Condition
    X-ray tube
          target              = Cu
          voltage             = 40.0 (kV)
          current             = 30.0 (mA)
    Slits
          divergence slit     = 2.00000 (deg)
          scatter slit        = 2.00000 (deg)
          receiving slit      = 0.15000 (mm)
    Scanning
          drive axis          = Theta-2Theta
          scan range          =    4.000 -   65.000
          scan mode           = Continuous Scan
          scan speed          =   2.0000 (deg/min)
          sampling pitch      =   0.0200 (deg)
          preset time         =   0.60 (sec)

# Data      [ Total No. = 3051 ]
  <2Theta>   <   I   >
     4.0000       178
     4.0600       214
     4.1200       184
     4.1800       206
     4.2400       194
     4.3000       188
     4.3600       208
     4.4200       178
     4.4800       178
     4.5400       160
     4.6000       176
     4.6600       158
     4.7200       176
     4.7800       176
     4.8400       162
     4.9000       160
     4.9600       152
     5.0200       162
     5.0800       160
     5.1400       178
     5.2000       174
     5.2600       164
     5.3200       166
     5.3800       174
     5.4400       190
     5.5000       174
     5.5600       168
     5.6200       164
     5.6800       172
     5.7400       156
     5.8000       164
     5.8600       146
     5.9200       174
     5.9800       154
     6.0400       182
     6.1000       148
     6.1600       176
     6.2200       152
     6.2800       150
     6.3400       186
     6.4000       150
     6.4600       160
     6.5200       144
     6.5800       156
     6.6400       132
     6.7000       140
     6.7600       136
     6.8200       144
     6.8800       146
     6.9400       140
     7.0000       128
     7.0600       130
     7.1200       142
     7.1800       144
     7.2400       134
     7.3000       130
     7.3600       130
     7.4200       106
     7.4800       116
     7.5400       122
     7.6000       124
     7.6600       110
     7.7200       138
     7.7800       144
     7.8400       128
     7.9000       114
     7.9600       104
     8.0200       104
     8.0800       134
     8.1400       118
     8.2000       110
     8.2600       122
     8.3200       120
     8.3800       122
     8.4400       120
     8.5000       144
     8.5600       112
     8.6200       130
     8.6800       110
     8.7400       126
     8.8000       126
     8.8600       116
     8.9200       128
     8.9800       100
     9.0400       104
     9.1000       116
     9.1600       124
     9.2200       102
     9.2800       124
     9.3400       130
     9.4000        88
     9.4600       102
     9.5200       124
     9.5800       124
     9.6400       100
     9.7000       134
     9.7600       110
     9.8200       152
     9.8800       128
     9.9400       118
    10.0000       118
    10.0600        98
    10.1200       120
    10.1800       112
    10.2400       102
    10.3000       110
    10.3600        98
    10.4200       116
    10.4800       100
    10.5400        88
    10.6000        88
    10.6600       108
    10.7200        96
    10.7800       104
    10.8400       116
    10.9000        92
    10.9600        78
    11.0200        90
    11.0800        96
    11.1400       104
    11.2000        88
    11.2600        96
    11.3200       112
    11.3800       102
    11.4400        78
    11.5000        76
    11.5600       110
    11.6200       108
    11.6800        90
    11.7400        86
    11.8000       102
    11.8600        94
    11.9200        88
    11.9800        82
    12.0400        78
    12.1000        78
    12.1600        86
    12.2200        84
    12.2800        82
    12.3400       110
    12.4000       114
    12.4600        90
    12.5200        78
    12.5800        72
    12.6400       104
    12.7000        80
    12.7600        92
    12.8200        94
    12.8800        74
    12.9400        72
    13.0000        74
    13.0600        92
    13.1200        74
    13.1800        62
    13.2400        62
    13.3000        70
    13.3600        72
    13.4200        68
    13.4800        72
    13.5400        76
    13.6000        72
    13.6600        74
    13.7200        80
    13.7800        72
    13.8400        78
    13.9000        66
    13.9600        58
    14.0200        76
    14.0800        60
    14.1400        74
    14.2000        70
    14.2600        66
    14.3200        64
    14.3800        72
    14.4400        62
    14.5000        50
    14.5600        66
    14.6200        78
    14.6800        46
    14.7400        66
    14.8000        60
    14.8600        56
    14.9200        80
    14.9800        60
    15.0400        76
    15.1000        58
    15.1600        68
    15.2200        76
    15.2800        56
    15.3400        68
    15.4000        60
    15.4600        64
    15.5200        54
    15.5800        62
    15.6400        68
    15.7000        60
    15.7600        52
    15.8200        44
    15.8800        58
    15.9400        52
    16.0000        52
    16.0600        44
    16.1200        48
    16.1800        66
    16.2400        58
    16.3000        50
    16.3600        66
    16.4200        60
    16.4800        72
    16.5400        62
    16.6000        62
    16.6600        62
    16.7200        68
    16.7800        62
    16.8400        56
    16.9000        70
    16.9600        46
    17.0200        70
    17.0800        50
    17.1400        52
    17.2000        74
    17.2600        60
    17.3200        76
    17.3800        72
    17.4400        66
    17.5000        52
    17.5600        60
    17.6200        60
    17.6800        58
    17.7400        72
    17.8000        58
    17.8600        66
    17.9200        52
    17.9800        54
    18.0400        54
    18.1000        58
    18.1600        62
    18.2200        66
    18.2800        54
    18.3400        48
    18.4000        60
    18.4600        72
    18.5200        72
    18.5800        84
    18.6400        56
    18.7000        56
    18.7600        60
    18.8200        64
    18.8800        56
    18.9400        56
    19.0000        66
    19.0600        68
    19.1200        66
    19.1800        72
    19.2400        64
    19.3000        50
    19.3600        70
    19.4200        58
    19.4800        58
    19.5400        60
    19.6000        64
    19.6600        76
    19.7200        52
    19.7800        40
    19.8400        54
    19.9000        62
    19.9600        72
    20.0200        64
    20.0800        58
    20.1400        52
    20.2000        48
    20.2600        64
    20.3200        62
    20.3800        52
    20.4400        50
    20.5000        60
    20.5600        82
    20.6200        76
    20.6800        62
    20.7400        68
    20.8000        80
    20.8600        70
    20.9200        84
    20.9800        96
    21.0400        82
    21.1000        74
    21.1600        70
    21.2200        56
    21.2800        60
    21.3400        56
    21.4000        50
    21.4600        68
    21.5200        60
    21.5800        56
    21.6400        50
    21.7000        52
    21.7600        50
    21.8200        48
    21.8800        70
    21.9400        52
    22.0000        62
    22.0600        50
    22.1200        58
    22.1800        68
    22.2400        58
    22.3000        58
    22.3600        36
    22.4200        58
    22.4800        54
    22.5400        40
    22.6000        56
    22.6600        52
    22.7200        66
    22.7800        50
    22.8400        46
    22.9000        46
    22.9600        50
    23.0200        56
    23.0800        48
    23.1400        52
    23.2000        58
    23.2600        52
    23.3200        64
    23.3800        50
    23.4400        66
    23.5000        46
    23.5600        54
    23.6200        52
    23.6800        52
    23.7400        62
    23.8000        46
    23.8600        58
    23.9200        58
    23.9800        56
    24.0400        54
    24.1000        60
    24.1600        54
    24.2200        70
    24.2800        40
    24.3400        44
    24.4000        56
    24.4600        38
    24.5200        44
    24.5800        52
    24.6400        60
    24.7000        48
    24.7600        68
    24.8200        58
    24.8800        58
    24.9400        70
    25.0000        50
    25.0600        62
    25.1200        58
    25.1800        52
    25.2400        48
    25.3000        50
    25.3600        56
    25.4200        54
    25.4800        64
    25.5400        62
    25.6000        60
    25.6600        66
    25.7200        68
    25.7800        78
    25.8400        86
    25.9000       128
    25.9600       166
    26.0200       306
    26.0800       424
    26.1400       474
    26.2000       314
    26.2600       138
    26.3200       116
    26.3800       148
    26.4400       120
    26.5000        94
    26.5600       106
    26.6200        72
    26.6800        70
    26.7400        66
    26.8000        70
    26.8600        80
    26.9200       102
    26.9800       144
    27.0400       236
    27.1000       284
    27.1600       240
    27.2200       134
    27.2800        88
    27.3400        68
    27.4000        58
    27.4600        68
    27.5200        54
    27.5800        54
    27.6400        50
    27.7000        82
    27.7600        92
    27.8200        96
    27.8800        94
    27.9400        66
    28.0000        50
    28.0600        66
    28.1200        56
    28.1800        48
    28.2400        42
    28.3000        42
    28.3600        64
    28.4200        56
    28.4800        70
    28.5400        36
    28.6000        46
    28.6600        56
    28.7200        40
    28.7800        36
    28.8400        48
    28.9000        46
    28.9600        54
    29.0200        52
    29.0800        58
    29.1400        28
    29.2000        52
    29.2600        48
    29.3200        62
    29.3800        66
    29.4400        48
    29.5000        42
    29.5600        42
    29.6200        40
    29.6800        42
    29.7400        38
    29.8000        34
    29.8600        60
    29.9200        40
    29.9800        44
    30.0400        40
    30.1000        48
    30.1600        56
    30.2200        46
    30.2800        38
    30.3400        48
    30.4000        64
    30.4600        52
    30.5200        46
    30.5800        64
    30.6400        56
    30.7000        62
    30.7600        62
    30.8200        52
    30.8800        48
    30.9400        52
    31.0000        56
    31.0600        58
    31.1200        44
    31.1800        44
    31.2400        50
    31.3000        40
    31.3600        44
    31.4200        42
    31.4800        52
    31.5400        42
    31.6000        34
    31.6600        44
    31.7200        44
    31.7800        46
    31.8400        54
    31.9000        48
    31.9600        38
    32.0200        28
    32.0800        38
    32.1400        50
    32.2000        46
    32.2600        38
    32.3200        52
    32.3800        50
    32.4400        46
    32.5000        64
    32.5600        62
    32.6200        80
    32.6800        78
    32.7400        84
    32.8000        80
    32.8600       134
    32.9200       210
    32.9800       266
    33.0400       272
    33.1000       184
    33.1600       102
    33.2200        72
    33.2800        58
    33.3400        64
    33.4000        72
    33.4600        62
    33.5200        32
    33.5800        50
    33.6400        44
    33.7000        56
    33.7600        62
    33.8200        66
    33.8800        52
    33.9400        42
    34.0000        60
    34.0600        42
    34.1200        58
    34.1800        52
    34.2400        60
    34.3000        44
    34.3600        62
    34.4200        58
    34.4800        58
    34.5400        52
    34.6000        60
    34.6600        60
    34.7200        48
    34.7800        48
    34.8400        46
    34.9000        56
    34.9600        58
    35.0200        50
    35.0800        52
    35.1400        44
    35.2000        44
    35.2600        46
    35.3200        68
    35.3800        48
    35.4400        48
    35.5000        68
    35.5600        68
    35.6200        90
    35.6800        66
    35.7400        76
    35.8000        86
    35.8600        92
    35.9200       162
    35.9800       242
    36.0400       358
    36.1000       370
    36.1600       212
    36.2200       160
    36.2800        98
    36.3400        98
    36.4000        94
    36.4600        78
    36.5200        96
    36.5800        74
    36.6400        78
    36.7000        70
    36.7600        70
    36.8200        80
    36.8800        86
    36.9400        86
    37.0000        96
    37.0600       114
    37.1200       138
    37.1800       128
    37.2400       122
    37.3000        96
    37.3600        68
    37.4200        60
    37.4800        74
    37.5400        74
    37.6000        84
    37.6600       112
    37.7200       160
    37.7800       204
    37.8400       150
    37.9000       136
    37.9600        86
    38.0200        76
    38.0800       100
    38.1400       144
    38.2000       222
    38.2600       318
    38.3200       368
    38.3800       292
    38.4400       228
    38.5000       140
    38.5600       128
    38.6200       102
    38.6800        52
    38.7400        54
    38.8000        46
    38.8600        48
    38.9200        40
    38.9800        32
    39.0400        44
    39.1000        42
    39.1600        36
    39.2200        40
    39.2800        42
    39.3400        42
    39.4000        40
    39.4600        44
    39.5200        52
    39.5800        42
    39.6400        36
    39.7000        56
    39.7600        44
    39.8200        44
    39.8800        40
    39.9400        48
    40.0000        44
    40.0600        50
    40.1200        34
    40.1800        36
    40.2400        42
    40.3000        38
    40.3600        42
    40.4200        42
    40.4800        38
    40.5400        54
    40.6000        58
    40.6600        64
    40.7200        80
    40.7800        66
    40.8400        76
    40.9000        64
    40.9600        66
    41.0200        98
    41.0800       132
    41.1400       102
    41.2000        84
    41.2600        64
    41.3200        62
    41.3800        42
    41.4400        50
    41.5000        52
    41.5600        40
    41.6200        40
    41.6800        38
    41.7400        50
    41.8000        36
    41.8600        38
    41.9200        42
    41.9800        40
    42.0400        36
    42.1000        24
    42.1600        44
    42.2200        36
    42.2800        44
    42.3400        38
    42.4000        58
    42.4600        42
    42.5200        64
    42.5800        72
    42.6400       106
    42.7000       204
    42.7600       364
    42.8200       392
    42.8800       318
    42.9400       224
    43.0000       110
    43.0600        76
    43.1200        62
    43.1800        52
    43.2400        66
    43.3000        48
    43.3600        40
    43.4200        54
    43.4800        34
    43.5400        38
    43.6000        34
    43.6600        56
    43.7200        32
    43.7800        38
    43.8400        44
    43.9000        34
    43.9600        34
    44.0200        22
    44.0800        36
    44.1400        36
    44.2000        30
    44.2600        28
    44.3200        42
    44.3800        34
    44.4400        40
    44.5000        30
    44.5600        38
    44.6200        42
    44.6800        34
    44.7400        38
    44.8000        44
    44.8600        34
    44.9200        42
    44.9800        44
    45.0400        32
    45.1000        46
    45.1600        56
    45.2200        64
    45.2800        52
    45.3400        70
    45.4000        94
    45.4600       100
    45.5200       112
    45.5800       130
    45.6400       220
    45.7000       452
    45.7600       546
    45.8200       438
    45.8800       324
    45.9400       188
    46.0000        86
    46.0600        74
    46.1200        48
    46.1800        48
    46.2400        38
    46.3000        44
    46.3600        50
    46.4200        36
    46.4800        44
    46.5400        36
    46.6000        36
    46.6600        38
    46.7200        40
    46.7800        44
    46.8400        38
    46.9000        42
    46.9600        42
    47.0200        32
    47.0800        38
    47.1400        32
    47.2000        42
    47.2600        46
    47.3200        54
    47.3800        42
    47.4400        48
    47.5000        42
    47.5600        52
    47.6200        24
    47.6800        50
    47.7400        32
    47.8000        40
    47.8600        50
    47.9200        60
    47.9800        66
    48.0400        78
    48.1000       114
    48.1600       168
    48.2200       242
    48.2800       220
    48.3400       214
    48.4000       154
    48.4600       108
    48.5200        94
    48.5800        78
    48.6400        44
    48.7000        40
    48.7600        36
    48.8200        40
    48.8800        46
    48.9400        36
    49.0000        46
    49.0600        36
    49.1200        34
    49.1800        30
    49.2400        38
    49.3000        44
    49.3600        42
    49.4200        30
    49.4800        38
    49.5400        38
    49.6000        56
    49.6600        54
    49.7200        42
    49.7800        64
    49.8400        50
    49.9000        48
    49.9600        64
    50.0200       104
    50.0800       140
    50.1400       122
    50.2000       104
    50.2600       114
    50.3200        80
    50.3800        42
    50.4400        34
    50.5000        34
    50.5600        42
    50.6200        30
    50.6800        30
    50.7400        30
    50.8000        36
    50.8600        36
    50.9200        42
    50.9800        34
    51.0400        42
    51.1000        30
    51.1600        34
    51.2200        36
    51.2800        28
    51.3400        38
    51.4000        40
    51.4600        34
    51.5200        36
    51.5800        40
    51.6400        40
    51.7000        42
    51.7600        50
    51.8200        56
    51.8800        56
    51.9400        60
    52.0000        48
    52.0600        78
    52.1200        42
    52.1800        62
    52.2400        60
    52.3000       130
    52.3600       100
    52.4200       102
    52.4800        96
    52.5400        88
    52.6000        68
    52.6600        62
    52.7200        82
    52.7800       102
    52.8400       112
    52.9000       128
    52.9600       102
    53.0200        84
    53.0800        82
    53.1400        40
    53.2000        50
    53.2600        44
    53.3200        44
    53.3800        54
    53.4400        34
    53.5000        36
    53.5600        38
    53.6200        52
    53.6800        42
    53.7400        34
    53.8000        54
    53.8600        44
    53.9200        36
    53.9800        40
    54.0400        30
    54.1000        30
    54.1600        36
    54.2200        40
    54.2800        36
    54.3400        32
    54.4000        34
    54.4600        28
    54.5200        34
    54.5800        42
    54.6400        30
    54.7000        46
    54.7600        42
    54.8200        30
    54.8800        50
    54.9400        40
    55.0000        30
    55.0600        26
    55.1200        42
    55.1800        42
    55.2400        38
    55.3000        38
    55.3600        28
    55.4200        42
    55.4800        42
    55.5400        36
    55.6000        42
    55.6600        38
    55.7200        40
    55.7800        40
    55.8400        42
    55.9000        42
    55.9600        58
    56.0200        58
    56.0800        56
    56.1400        64
    56.2000        72
    56.2600        62
    56.3200        78
    56.3800        50
    56.4400        40
    56.5000        50
    56.5600        36
    56.6200        50
    56.6800        60
    56.7400        52
    56.8000        56
    56.8600        36
    56.9200        36
    56.9800        30
    57.0400        32
    57.1000        36
    57.1600        24
    57.2200        32
    57.2800        40
    57.3400        34
    57.4000        26
    57.4600        42
    57.5200        34
    57.5800        32
    57.6400        38
    57.7000        58
    57.7600        34
    57.8200        50
    57.8800        44
    57.9400        38
    58.0000        46
    58.0600        40
    58.1200        34
    58.1800        42
    58.2400        26
    58.3000        32
    58.3600        38
    58.4200        32
    58.4800        26
    58.5400        42
    58.6000        42
    58.6600        36
    58.7200        36
    58.7800        42
    58.8400        36
    58.9000        44
    58.9600        44
    59.0200        66
    59.0800        76
    59.1400        84
    59.2000        72
    59.2600        74
    59.3200        72
    59.3800        72
    59.4400        68
    59.5000        58
    59.5600        42
    59.6200        42
    59.6800        46
    59.7400        34
    59.8000        52
    59.8600        40
    59.9200        34
    59.9800        54
    60.0400        56
    60.1000        56
    60.1600        64
    60.2200        58
    60.2800        50
    60.3400        38
    60.4000        46
    60.4600        50
    60.5200        36
    60.5800        40
    60.6400        32
    60.7000        24
    60.7600        42
    60.8200        38
    60.8800        34
    60.9400        28
    61.0000        38
    61.0600        36
    61.1200        34
    61.1800        32
    61.2400        40
    61.3000        44
    61.3600        44
    61.4200        40
    61.4800        48
    61.5400        64
    61.6000        62
    61.6600        56
    61.7200        76
    61.7800        56
    61.8400        66
    61.9000        60
    61.9600        40
    62.0200        36
    62.0800        34
    62.1400        32
    62.2000        46
    62.2600        24
    62.3200        42
    62.3800        38
    62.4400        40
    62.5000        30
    62.5600        36
    62.6200        38
    62.6800        42
    62.7400        48
    62.8000        64
    62.8600        56
    62.9200        38
    62.9800        60
    63.0400        54
    63.1000        44
    63.1600        70
    63.2200        66
    63.2800        72
    63.3400        64
    63.4000        58
    63.4600        46
    63.5200        44
    63.5800        32
    63.6400        50
    63.7000        36
    63.7600        44
    63.8200        30
    63.8800        36
    63.9400        34
    64.0000        40
    64.0600        42
    64.1200        34
    64.1800        46
    64.2400        42
    64.3000        38
    64.3600        40
    64.4200        40
    64.4800        40
    64.5400        50
    64.6000        36
    64.6600        28
    64.7200        32
    64.7800        44
    64.8400        30
    64.9000        34
    64.9600        32
    65.0000        28