File: sl1/usgs/library06/DESCRIPT/new_xrd_results_to_be_added/Rhonda_Driscoll_xrd_runs/GDS820---Halloysite.txt
/////////////////////////////////////////////////////////////////////////////////
/// Profile Data Ascii Dump (XRD)                                             ///
/////////////////////////////////////////////////////////////////////////////////

  Group     : Swayze
  Data      : GDS820
  File Name : GDS820.RAW

# Profile Datafile
          comment             = Halloysite
          date & time         = 08-04-01 07:49:53

# Measurement Condition
    X-ray tube
          target              = Cu
          voltage             = 40.0 (kV)
          current             = 30.0 (mA)
    Slits
          divergence slit     = 2.00000 (deg)
          scatter slit        = 2.00000 (deg)
          receiving slit      = 0.15000 (mm)
    Scanning
          drive axis          = Theta-2Theta
          scan range          =    4.000 -   65.000
          scan mode           = Continuous Scan
          scan speed          =   2.0000 (deg/min)
          sampling pitch      =   0.0200 (deg)
          preset time         =   0.60 (sec)

# Data      [ Total No. = 3051 ]
  <2Theta>   <   I   >
     4.0000       174
     4.0600       178
     4.1200       170
     4.1800       186
     4.2400       200
     4.3000       190
     4.3600       180
     4.4200       172
     4.4800       162
     4.5400       164
     4.6000       160
     4.6600       142
     4.7200       174
     4.7800       160
     4.8400       164
     4.9000       162
     4.9600       170
     5.0200       158
     5.0800       144
     5.1400       142
     5.2000       154
     5.2600       152
     5.3200       146
     5.3800       144
     5.4400       168
     5.5000       146
     5.5600       160
     5.6200       170
     5.6800       152
     5.7400       178
     5.8000       156
     5.8600       134
     5.9200       152
     5.9800       148
     6.0400       158
     6.1000       158
     6.1600       168
     6.2200       152
     6.2800       132
     6.3400       158
     6.4000       136
     6.4600       130
     6.5200       142
     6.5800       120
     6.6400       122
     6.7000       140
     6.7600       150
     6.8200       132
     6.8800       114
     6.9400       104
     7.0000       128
     7.0600       136
     7.1200       126
     7.1800       132
     7.2400       116
     7.3000       120
     7.3600       112
     7.4200       110
     7.4800       130
     7.5400       132
     7.6000       118
     7.6600       128
     7.7200       118
     7.7800       124
     7.8400       102
     7.9000       106
     7.9600       106
     8.0200       126
     8.0800       112
     8.1400       120
     8.2000       120
     8.2600       104
     8.3200       102
     8.3800       106
     8.4400       124
     8.5000       106
     8.5600       130
     8.6200       108
     8.6800       124
     8.7400       114
     8.8000       120
     8.8600       110
     8.9200       122
     8.9800       114
     9.0400       140
     9.1000       104
     9.1600       128
     9.2200       112
     9.2800       110
     9.3400       130
     9.4000       122
     9.4600       102
     9.5200       104
     9.5800       116
     9.6400       134
     9.7000        92
     9.7600       104
     9.8200       116
     9.8800       134
     9.9400       102
    10.0000       108
    10.0600       128
    10.1200       128
    10.1800       120
    10.2400       110
    10.3000       110
    10.3600        98
    10.4200        96
    10.4800       106
    10.5400       100
    10.6000       122
    10.6600       104
    10.7200       114
    10.7800       130
    10.8400       114
    10.9000       124
    10.9600        96
    11.0200       120
    11.0800       124
    11.1400       122
    11.2000       118
    11.2600       110
    11.3200       104
    11.3800        94
    11.4400       142
    11.5000       130
    11.5600       124
    11.6200       156
    11.6800       144
    11.7400       134
    11.8000       162
    11.8600       162
    11.9200       192
    11.9800       204
    12.0400       236
    12.1000       208
    12.1600       204
    12.2200       210
    12.2800       200
    12.3400       212
    12.4000       182
    12.4600       150
    12.5200       154
    12.5800       140
    12.6400       110
    12.7000        96
    12.7600       112
    12.8200        80
    12.8800        68
    12.9400        90
    13.0000        78
    13.0600        76
    13.1200        70
    13.1800        84
    13.2400        94
    13.3000        72
    13.3600        64
    13.4200        78
    13.4800        68
    13.5400        96
    13.6000        72
    13.6600        74
    13.7200        84
    13.7800        54
    13.8400        82
    13.9000        56
    13.9600        76
    14.0200        66
    14.0800        58
    14.1400        74
    14.2000        62
    14.2600        58
    14.3200        56
    14.3800        72
    14.4400        66
    14.5000        68
    14.5600        52
    14.6200        58
    14.6800        66
    14.7400        52
    14.8000        52
    14.8600        48
    14.9200        52
    14.9800        56
    15.0400        44
    15.1000        50
    15.1600        50
    15.2200        60
    15.2800        60
    15.3400        54
    15.4000        46
    15.4600        62
    15.5200        50
    15.5800        36
    15.6400        60
    15.7000        58
    15.7600        54
    15.8200        60
    15.8800        50
    15.9400        54
    16.0000        50
    16.0600        56
    16.1200        58
    16.1800        56
    16.2400        44
    16.3000        44
    16.3600        44
    16.4200        46
    16.4800        52
    16.5400        54
    16.6000        46
    16.6600        60
    16.7200        46
    16.7800        62
    16.8400        42
    16.9000        58
    16.9600        58
    17.0200        44
    17.0800        56
    17.1400        46
    17.2000        44
    17.2600        50
    17.3200        60
    17.3800        62
    17.4400        72
    17.5000        50
    17.5600        50
    17.6200        54
    17.6800        60
    17.7400        48
    17.8000        40
    17.8600        56
    17.9200        42
    17.9800        62
    18.0400        48
    18.1000        42
    18.1600        54
    18.2200        40
    18.2800        44
    18.3400        54
    18.4000        62
    18.4600        46
    18.5200        48
    18.5800        52
    18.6400        56
    18.7000        62
    18.7600        46
    18.8200        56
    18.8800        94
    18.9400        62
    19.0000        56
    19.0600        56
    19.1200        68
    19.1800        74
    19.2400        58
    19.3000        76
    19.3600        76
    19.4200        84
    19.4800        68
    19.5400        88
    19.6000        96
    19.6600       132
    19.7200       160
    19.7800       240
    19.8400       338
    19.9000       352
    19.9600       316
    20.0200       312
    20.0800       302
    20.1400       324
    20.2000       308
    20.2600       292
    20.3200       332
    20.3800       274
    20.4400       290
    20.5000       276
    20.5600       278
    20.6200       236
    20.6800       214
    20.7400       232
    20.8000       234
    20.8600       208
    20.9200       220
    20.9800       212
    21.0400       222
    21.1000       196
    21.1600       216
    21.2200       228
    21.2800       230
    21.3400       228
    21.4000       206
    21.4600       208
    21.5200       208
    21.5800       194
    21.6400       184
    21.7000       168
    21.7600       174
    21.8200       162
    21.8800       152
    21.9400       176
    22.0000       184
    22.0600       146
    22.1200       136
    22.1800       140
    22.2400       140
    22.3000       160
    22.3600       134
    22.4200       126
    22.4800       134
    22.5400       150
    22.6000       126
    22.6600       154
    22.7200       146
    22.7800       162
    22.8400       132
    22.9000       140
    22.9600       142
    23.0200       132
    23.0800       122
    23.1400       152
    23.2000       126
    23.2600       120
    23.3200       136
    23.3800       128
    23.4400       128
    23.5000       132
    23.5600       148
    23.6200       158
    23.6800       146
    23.7400       146
    23.8000       136
    23.8600       142
    23.9200       134
    23.9800       138
    24.0400       126
    24.1000       146
    24.1600       132
    24.2200       152
    24.2800       164
    24.3400       182
    24.4000       210
    24.4600       248
    24.5200       264
    24.5800       234
    24.6400       234
    24.7000       228
    24.7600       200
    24.8200       236
    24.8800       208
    24.9400       188
    25.0000       176
    25.0600       194
    25.1200       162
    25.1800       158
    25.2400       128
    25.3000       138
    25.3600       132
    25.4200       114
    25.4800       136
    25.5400       124
    25.6000       140
    25.6600       120
    25.7200       106
    25.7800       100
    25.8400       108
    25.9000        90
    25.9600       110
    26.0200        88
    26.0800        94
    26.1400       106
    26.2000        92
    26.2600        98
    26.3200        88
    26.3800       128
    26.4400       164
    26.5000       120
    26.5600       102
    26.6200        90
    26.6800        80
    26.7400        96
    26.8000        76
    26.8600        82
    26.9200        64
    26.9800        74
    27.0400        60
    27.1000        72
    27.1600        84
    27.2200        84
    27.2800        94
    27.3400        58
    27.4000       104
    27.4600       102
    27.5200       102
    27.5800        82
    27.6400       136
    27.7000       136
    27.7600       152
    27.8200       252
    27.8800       278
    27.9400       210
    28.0000       206
    28.0600       218
    28.1200       120
    28.1800        80
    28.2400        66
    28.3000        86
    28.3600        80
    28.4200        84
    28.4800       110
    28.5400       144
    28.6000        88
    28.6600        48
    28.7200        56
    28.7800        60
    28.8400        60
    28.9000        58
    28.9600        56
    29.0200        60
    29.0800        50
    29.1400        54
    29.2000        62
    29.2600        56
    29.3200        42
    29.3800        64
    29.4400        62
    29.5000        62
    29.5600        44
    29.6200        58
    29.6800        52
    29.7400        60
    29.8000        44
    29.8600        56
    29.9200        52
    29.9800        66
    30.0400        44
    30.1000        40
    30.1600        46
    30.2200        58
    30.2800        48
    30.3400        86
    30.4000        78
    30.4600        82
    30.5200        52
    30.5800        62
    30.6400        48
    30.7000        52
    30.7600        68
    30.8200        68
    30.8800        86
    30.9400        70
    31.0000        50
    31.0600        40
    31.1200        56
    31.1800        50
    31.2400        32
    31.3000        52
    31.3600        48
    31.4200        44
    31.4800        58
    31.5400        70
    31.6000        90
    31.6600        82
    31.7200        58
    31.7800        46
    31.8400        56
    31.9000        54
    31.9600        42
    32.0200        48
    32.0800        62
    32.1400        54
    32.2000        40
    32.2600        48
    32.3200        44
    32.3800        54
    32.4400        46
    32.5000        50
    32.5600        40
    32.6200        38
    32.6800        32
    32.7400        32
    32.8000        58
    32.8600        64
    32.9200        44
    32.9800        32
    33.0400        38
    33.1000        44
    33.1600        48
    33.2200        60
    33.2800        48
    33.3400        64
    33.4000        44
    33.4600        46
    33.5200        50
    33.5800        64
    33.6400        46
    33.7000        50
    33.7600        44
    33.8200        40
    33.8800        56
    33.9400        68
    34.0000        52
    34.0600        52
    34.1200        40
    34.1800        56
    34.2400        40
    34.3000        46
    34.3600        50
    34.4200        60
    34.4800        66
    34.5400        82
    34.6000        74
    34.6600        88
    34.7200        98
    34.7800       124
    34.8400       184
    34.9000       212
    34.9600       246
    35.0200       258
    35.0800       234
    35.1400       234
    35.2000       200
    35.2600       168
    35.3200       192
    35.3800       216
    35.4400       156
    35.5000       194
    35.5600       212
    35.6200       214
    35.6800       216
    35.7400       210
    35.8000       238
    35.8600       214
    35.9200       212
    35.9800       208
    36.0400       204
    36.1000       184
    36.1600       174
    36.2200       104
    36.2800       114
    36.3400        92
    36.4000        72
    36.4600        88
    36.5200        98
    36.5800        82
    36.6400        68
    36.7000        94
    36.7600       102
    36.8200        74
    36.8800        98
    36.9400        64
    37.0000        66
    37.0600        68
    37.1200        88
    37.1800        72
    37.2400        72
    37.3000        88
    37.3600        90
    37.4200        82
    37.4800       122
    37.5400        90
    37.6000       124
    37.6600       112
    37.7200        98
    37.7800       120
    37.8400       122
    37.9000       120
    37.9600       150
    38.0200       164
    38.0800       180
    38.1400       192
    38.2000       198
    38.2600       256
    38.3200       236
    38.3800       204
    38.4400       238
    38.5000       244
    38.5600       208
    38.6200       182
    38.6800       192
    38.7400       200
    38.8000       180
    38.8600       162
    38.9200       152
    38.9800       154
    39.0400       140
    39.1000       150
    39.1600       146
    39.2200       156
    39.2800       118
    39.3400       132
    39.4000       130
    39.4600        92
    39.5200       100
    39.5800       106
    39.6400        90
    39.7000        74
    39.7600        74
    39.8200        82
    39.8800        84
    39.9400        84
    40.0000        70
    40.0600        84
    40.1200        70
    40.1800        74
    40.2400        66
    40.3000        72
    40.3600        68
    40.4200        60
    40.4800        70
    40.5400        74
    40.6000        68
    40.6600        80
    40.7200        76
    40.7800        60
    40.8400        78
    40.9000        64
    40.9600        62
    41.0200        62
    41.0800        72
    41.1400        54
    41.2000        66
    41.2600        74
    41.3200        62
    41.3800        58
    41.4400        64
    41.5000        58
    41.5600        52
    41.6200        46
    41.6800        56
    41.7400        60
    41.8000        64
    41.8600        60
    41.9200        70
    41.9800        64
    42.0400        50
    42.1000        50
    42.1600        66
    42.2200        68
    42.2800        62
    42.3400        56
    42.4000        36
    42.4600        46
    42.5200        66
    42.5800        54
    42.6400        54
    42.7000        60
    42.7600        44
    42.8200        60
    42.8800        56
    42.9400        46
    43.0000        52
    43.0600        60
    43.1200        66
    43.1800        48
    43.2400        46
    43.3000        52
    43.3600        50
    43.4200        50
    43.4800        42
    43.5400        44
    43.6000        58
    43.6600        46
    43.7200        52
    43.7800        48
    43.8400        44
    43.9000        66
    43.9600        40
    44.0200        36
    44.0800        46
    44.1400        44
    44.2000        56
    44.2600        52
    44.3200        42
    44.3800        46
    44.4400        52
    44.5000        52
    44.5600        64
    44.6200        56
    44.6800        46
    44.7400        74
    44.8000        56
    44.8600        62
    44.9200        58
    44.9800        76
    45.0400        52
    45.1000        68
    45.1600        88
    45.2200        84
    45.2800        76
    45.3400        76
    45.4000        84
    45.4600        82
    45.5200        90
    45.5800        76
    45.6400        78
    45.7000        86
    45.7600        88
    45.8200        68
    45.8800        98
    45.9400        58
    46.0000        66
    46.0600        76
    46.1200        78
    46.1800        62
    46.2400        66
    46.3000        76
    46.3600        68
    46.4200        48
    46.4800        66
    46.5400        54
    46.6000        78
    46.6600        60
    46.7200        52
    46.7800        66
    46.8400        74
    46.9000        68
    46.9600        70
    47.0200        68
    47.0800        78
    47.1400        66
    47.2000        54
    47.2600        66
    47.3200        62
    47.3800        62
    47.4400        52
    47.5000        50
    47.5600        72
    47.6200        64
    47.6800        42
    47.7400        62
    47.8000        56
    47.8600        56
    47.9200        42
    47.9800        58
    48.0400        46
    48.1000        58
    48.1600        56
    48.2200        52
    48.2800        68
    48.3400        64
    48.4000        60
    48.4600        56
    48.5200        54
    48.5800        56
    48.6400        54
    48.7000        52
    48.7600        56
    48.8200        40
    48.8800        64
    48.9400        48
    49.0000        62
    49.0600        66
    49.1200        58
    49.1800        44
    49.2400        74
    49.3000        62
    49.3600        54
    49.4200        58
    49.4800        50
    49.5400        58
    49.6000        46
    49.6600        66
    49.7200        50
    49.7800        54
    49.8400        62
    49.9000        68
    49.9600        50
    50.0200        48
    50.0800        42
    50.1400        50
    50.2000        56
    50.2600        44
    50.3200        46
    50.3800        34
    50.4400        56
    50.5000        44
    50.5600        44
    50.6200        42
    50.6800        56
    50.7400        62
    50.8000        60
    50.8600        46
    50.9200        54
    50.9800        42
    51.0400        54
    51.1000        48
    51.1600        42
    51.2200        54
    51.2800        46
    51.3400        32
    51.4000        54
    51.4600        44
    51.5200        56
    51.5800        48
    51.6400        42
    51.7000        40
    51.7600        54
    51.8200        42
    51.8800        44
    51.9400        44
    52.0000        42
    52.0600        32
    52.1200        54
    52.1800        32
    52.2400        46
    52.3000        38
    52.3600        34
    52.4200        44
    52.4800        38
    52.5400        30
    52.6000        52
    52.6600        40
    52.7200        44
    52.7800        46
    52.8400        46
    52.9000        50
    52.9600        40
    53.0200        36
    53.0800        54
    53.1400        32
    53.2000        54
    53.2600        42
    53.3200        48
    53.3800        44
    53.4400        30
    53.5000        52
    53.5600        56
    53.6200        40
    53.6800        48
    53.7400        52
    53.8000        40
    53.8600        48
    53.9200        48
    53.9800        64
    54.0400        68
    54.1000        62
    54.1600        68
    54.2200        86
    54.2800        90
    54.3400        74
    54.4000        98
    54.4600        94
    54.5200       104
    54.5800        92
    54.6400        94
    54.7000        84
    54.7600        86
    54.8200        88
    54.8800        94
    54.9400       106
    55.0000        98
    55.0600       104
    55.1200        92
    55.1800        86
    55.2400       100
    55.3000        94
    55.3600       104
    55.4200        92
    55.4800        86
    55.5400        86
    55.6000       104
    55.6600        92
    55.7200        94
    55.7800        96
    55.8400        90
    55.9000        70
    55.9600        76
    56.0200        62
    56.0800        80
    56.1400        68
    56.2000        80
    56.2600        74
    56.3200       100
    56.3800        82
    56.4400        84
    56.5000        64
    56.5600        78
    56.6200        76
    56.6800        62
    56.7400        78
    56.8000        82
    56.8600        82
    56.9200        62
    56.9800        54
    57.0400        50
    57.1000        74
    57.1600        64
    57.2200        62
    57.2800        60
    57.3400        68
    57.4000        58
    57.4600        48
    57.5200        42
    57.5800        60
    57.6400        50
    57.7000        60
    57.7600        54
    57.8200        62
    57.8800        60
    57.9400        52
    58.0000        50
    58.0600        56
    58.1200        58
    58.1800        42
    58.2400        50
    58.3000        40
    58.3600        48
    58.4200        62
    58.4800        56
    58.5400        50
    58.6000        54
    58.6600        50
    58.7200        60
    58.7800        50
    58.8400        54
    58.9000        54
    58.9600        50
    59.0200        50
    59.0800        72
    59.1400        46
    59.2000        38
    59.2600        58
    59.3200        64
    59.3800        60
    59.4400        54
    59.5000        54
    59.5600        62
    59.6200        48
    59.6800        62
    59.7400        52
    59.8000        62
    59.8600        54
    59.9200        56
    59.9800        60
    60.0400        72
    60.1000        74
    60.1600        74
    60.2200        58
    60.2800        60
    60.3400        54
    60.4000        52
    60.4600        46
    60.5200        56
    60.5800        50
    60.6400        50
    60.7000        52
    60.7600        34
    60.8200        46
    60.8800        62
    60.9400        48
    61.0000        32
    61.0600        46
    61.1200        50
    61.1800        44
    61.2400        44
    61.3000        60
    61.3600        56
    61.4200        38
    61.4800        48
    61.5400        42
    61.6000        34
    61.6600        50
    61.7200        50
    61.7800        40
    61.8400        52
    61.9000        84
    61.9600        84
    62.0200        98
    62.0800       118
    62.1400       142
    62.2000       176
    62.2600       194
    62.3200       196
    62.3800       174
    62.4400       170
    62.5000       146
    62.5600       108
    62.6200       104
    62.6800        92
    62.7400        88
    62.8000        78
    62.8600        84
    62.9200        68
    62.9800        68
    63.0400        58
    63.1000        68
    63.1600        66
    63.2200        60
    63.2800        56
    63.3400        50
    63.4000        68
    63.4600        48
    63.5200        58
    63.5800        68
    63.6400        52
    63.7000        66
    63.7600        66
    63.8200        60
    63.8800        56
    63.9400       102
    64.0000        76
    64.0600        52
    64.1200        82
    64.1800        60
    64.2400        52
    64.3000        56
    64.3600        48
    64.4200        40
    64.4800        44
    64.5400        52
    64.6000        58
    64.6600        46
    64.7200        42
    64.7800        40
    64.8400        48
    64.9000        34
    64.9600        36
    65.0000        42