File: sl1/usgs/library06/DESCRIPT/new_xrd_results_to_be_added/Rhonda_Driscoll_xrd_runs/GDS819---Palygorskite.txt
/////////////////////////////////////////////////////////////////////////////////
/// Profile Data Ascii Dump (XRD)                                             ///
/////////////////////////////////////////////////////////////////////////////////

  Group     : Swayze
  Data      : GDS819
  File Name : GDS819.RAW

# Profile Datafile
          comment             = Palygorskite
          date & time         = 08-04-01 05:46:03

# Measurement Condition
    X-ray tube
          target              = Cu
          voltage             = 40.0 (kV)
          current             = 30.0 (mA)
    Slits
          divergence slit     = 2.00000 (deg)
          scatter slit        = 2.00000 (deg)
          receiving slit      = 0.15000 (mm)
    Scanning
          drive axis          = Theta-2Theta
          scan range          =    4.000 -   65.000
          scan mode           = Continuous Scan
          scan speed          =   2.0000 (deg/min)
          sampling pitch      =   0.0200 (deg)
          preset time         =   0.60 (sec)

# Data      [ Total No. = 3051 ]
  <2Theta>   <   I   >
     4.0000       290
     4.0600       284
     4.1200       254
     4.1800       240
     4.2400       276
     4.3000       256
     4.3600       244
     4.4200       216
     4.4800       238
     4.5400       230
     4.6000       240
     4.6600       226
     4.7200       218
     4.7800       236
     4.8400       230
     4.9000       258
     4.9600       232
     5.0200       216
     5.0800       236
     5.1400       220
     5.2000       238
     5.2600       240
     5.3200       242
     5.3800       236
     5.4400       212
     5.5000       234
     5.5600       224
     5.6200       232
     5.6800       244
     5.7400       238
     5.8000       236
     5.8600       252
     5.9200       230
     5.9800       264
     6.0400       266
     6.1000       212
     6.1600       280
     6.2200       230
     6.2800       242
     6.3400       236
     6.4000       248
     6.4600       258
     6.5200       254
     6.5800       254
     6.6400       254
     6.7000       250
     6.7600       256
     6.8200       238
     6.8800       216
     6.9400       262
     7.0000       236
     7.0600       228
     7.1200       216
     7.1800       286
     7.2400       244
     7.3000       232
     7.3600       218
     7.4200       290
     7.4800       248
     7.5400       282
     7.6000       294
     7.6600       298
     7.7200       340
     7.7800       366
     7.8400       350
     7.9000       364
     7.9600       408
     8.0200       476
     8.0800       600
     8.1400       646
     8.2000       754
     8.2600       916
     8.3200      1074
     8.3800      1082
     8.4400       904
     8.5000       838
     8.5600       658
     8.6200       514
     8.6800       362
     8.7400       272
     8.8000       228
     8.8600       214
     8.9200       192
     8.9800       160
     9.0400       148
     9.1000       140
     9.1600       134
     9.2200       124
     9.2800       128
     9.3400       136
     9.4000       122
     9.4600       138
     9.5200       144
     9.5800       136
     9.6400       126
     9.7000       126
     9.7600       114
     9.8200       132
     9.8800       112
     9.9400       138
    10.0000       114
    10.0600       114
    10.1200       126
    10.1800       112
    10.2400       118
    10.3000        96
    10.3600        86
    10.4200       100
    10.4800       102
    10.5400       108
    10.6000        84
    10.6600       110
    10.7200        94
    10.7800       108
    10.8400        92
    10.9000        76
    10.9600        96
    11.0200       110
    11.0800        90
    11.1400        82
    11.2000        92
    11.2600        80
    11.3200        90
    11.3800        86
    11.4400        90
    11.5000        92
    11.5600        96
    11.6200        96
    11.6800        96
    11.7400        96
    11.8000       106
    11.8600        76
    11.9200        90
    11.9800       106
    12.0400        88
    12.1000        94
    12.1600        92
    12.2200        96
    12.2800        74
    12.3400        92
    12.4000        92
    12.4600        94
    12.5200        92
    12.5800       102
    12.6400        72
    12.7000        62
    12.7600        64
    12.8200        82
    12.8800        70
    12.9400        90
    13.0000        88
    13.0600        96
    13.1200       108
    13.1800        94
    13.2400        92
    13.3000       102
    13.3600       108
    13.4200       128
    13.4800       142
    13.5400       146
    13.6000       146
    13.6600       174
    13.7200       164
    13.7800       162
    13.8400       170
    13.9000       154
    13.9600       130
    14.0200       104
    14.0800        96
    14.1400        94
    14.2000        82
    14.2600        94
    14.3200        90
    14.3800        84
    14.4400        70
    14.5000        66
    14.5600        56
    14.6200        74
    14.6800        86
    14.7400        82
    14.8000        66
    14.8600        78
    14.9200        70
    14.9800        74
    15.0400        62
    15.1000        72
    15.1600        66
    15.2200        74
    15.2800        66
    15.3400        76
    15.4000        74
    15.4600        70
    15.5200        74
    15.5800        64
    15.6400        72
    15.7000        72
    15.7600        60
    15.8200        72
    15.8800        66
    15.9400        94
    16.0000        68
    16.0600        86
    16.1200        98
    16.1800       100
    16.2400       140
    16.3000       136
    16.3600       134
    16.4200       112
    16.4800       120
    16.5400        96
    16.6000        84
    16.6600        86
    16.7200        94
    16.7800        70
    16.8400        74
    16.9000        78
    16.9600        68
    17.0200        68
    17.0800        82
    17.1400        56
    17.2000        76
    17.2600        52
    17.3200        70
    17.3800        72
    17.4400        70
    17.5000        52
    17.5600        62
    17.6200        60
    17.6800        56
    17.7400        56
    17.8000        66
    17.8600        60
    17.9200        66
    17.9800        58
    18.0400        58
    18.1000        74
    18.1600        72
    18.2200        56
    18.2800        64
    18.3400        60
    18.4000        70
    18.4600        66
    18.5200        64
    18.5800        58
    18.6400        62
    18.7000        68
    18.7600        62
    18.8200        86
    18.8800        78
    18.9400        54
    19.0000        58
    19.0600        62
    19.1200        62
    19.1800        70
    19.2400        68
    19.3000        54
    19.3600        70
    19.4200        80
    19.4800       108
    19.5400       106
    19.6000       106
    19.6600       140
    19.7200       188
    19.7800       214
    19.8400       244
    19.9000       250
    19.9600       180
    20.0200       132
    20.0800       138
    20.1400       126
    20.2000        76
    20.2600        96
    20.3200       104
    20.3800        94
    20.4400       106
    20.5000       108
    20.5600       146
    20.6200       150
    20.6800       196
    20.7400       188
    20.8000       192
    20.8600       178
    20.9200       132
    20.9800       110
    21.0400        90
    21.1000       100
    21.1600        72
    21.2200        70
    21.2800        82
    21.3400        80
    21.4000        80
    21.4600        56
    21.5200        52
    21.5800        52
    21.6400        64
    21.7000        80
    21.7600        56
    21.8200        58
    21.8800        52
    21.9400        46
    22.0000        70
    22.0600        46
    22.1200        48
    22.1800        50
    22.2400        50
    22.3000        46
    22.3600        44
    22.4200        62
    22.4800        48
    22.5400        60
    22.6000        52
    22.6600        52
    22.7200        56
    22.7800        68
    22.8400        54
    22.9000        60
    22.9600        46
    23.0200        58
    23.0800        42
    23.1400        50
    23.2000        70
    23.2600        62
    23.3200        46
    23.3800        90
    23.4400        76
    23.5000        80
    23.5600        92
    23.6200        82
    23.6800        94
    23.7400       110
    23.8000       100
    23.8600       104
    23.9200       138
    23.9800       182
    24.0400       148
    24.1000       160
    24.1600       182
    24.2200       136
    24.2800       136
    24.3400       108
    24.4000       120
    24.4600        84
    24.5200        94
    24.5800        86
    24.6400        50
    24.7000        64
    24.7600        50
    24.8200        66
    24.8800        60
    24.9400        44
    25.0000        68
    25.0600        54
    25.1200        64
    25.1800        70
    25.2400        60
    25.3000        52
    25.3600        70
    25.4200        60
    25.4800        56
    25.5400        74
    25.6000        52
    25.6600        66
    25.7200        46
    25.7800        78
    25.8400        68
    25.9000        66
    25.9600        70
    26.0200        72
    26.0800        58
    26.1400        88
    26.2000        70
    26.2600        90
    26.3200       100
    26.3800        98
    26.4400        96
    26.5000       112
    26.5600        94
    26.6200        88
    26.6800        90
    26.7400        72
    26.8000        70
    26.8600       100
    26.9200        82
    26.9800        94
    27.0400        94
    27.1000        98
    27.1600       112
    27.2200       106
    27.2800       110
    27.3400       110
    27.4000       128
    27.4600       128
    27.5200       106
    27.5800       150
    27.6400       128
    27.7000       126
    27.7600       126
    27.8200       146
    27.8800       140
    27.9400       144
    28.0000       134
    28.0600       120
    28.1200       116
    28.1800       112
    28.2400       128
    28.3000       122
    28.3600       118
    28.4200       106
    28.4800       120
    28.5400       148
    28.6000       144
    28.6600       144
    28.7200       158
    28.7800       112
    28.8400       128
    28.9000       104
    28.9600        86
    29.0200        74
    29.0800        60
    29.1400        78
    29.2000        46
    29.2600        60
    29.3200        62
    29.3800        56
    29.4400        54
    29.5000        40
    29.5600        62
    29.6200        50
    29.6800        48
    29.7400        48
    29.8000        40
    29.8600        58
    29.9200        40
    29.9800        42
    30.0400        48
    30.1000        40
    30.1600        64
    30.2200        46
    30.2800        46
    30.3400        42
    30.4000        58
    30.4600        48
    30.5200        46
    30.5800        52
    30.6400        54
    30.7000        42
    30.7600        54
    30.8200        60
    30.8800        54
    30.9400        40
    31.0000        56
    31.0600        48
    31.1200        40
    31.1800        62
    31.2400        54
    31.3000        38
    31.3600        40
    31.4200        48
    31.4800        38
    31.5400        54
    31.6000        34
    31.6600        30
    31.7200        38
    31.7800        22
    31.8400        30
    31.9000        52
    31.9600        46
    32.0200        34
    32.0800        36
    32.1400        38
    32.2000        52
    32.2600        42
    32.3200        34
    32.3800        34
    32.4400        40
    32.5000        52
    32.5600        50
    32.6200        40
    32.6800        48
    32.7400        46
    32.8000        54
    32.8600        56
    32.9200        44
    32.9800        50
    33.0400        60
    33.1000        64
    33.1600        80
    33.2200       106
    33.2800       110
    33.3400       106
    33.4000        96
    33.4600       106
    33.5200        82
    33.5800        88
    33.6400        74
    33.7000        70
    33.7600        64
    33.8200        66
    33.8800        78
    33.9400        78
    34.0000        76
    34.0600        84
    34.1200        90
    34.1800        78
    34.2400        94
    34.3000        88
    34.3600        92
    34.4200        92
    34.4800       124
    34.5400        94
    34.6000       124
    34.6600       112
    34.7200        96
    34.7800       116
    34.8400       106
    34.9000       132
    34.9600       120
    35.0200       118
    35.0800       120
    35.1400       132
    35.2000       162
    35.2600       174
    35.3200       192
    35.3800       212
    35.4400       146
    35.5000       140
    35.5600       102
    35.6200        84
    35.6800        82
    35.7400        74
    35.8000        62
    35.8600        50
    35.9200        60
    35.9800        48
    36.0400        58
    36.1000        62
    36.1600        50
    36.2200        64
    36.2800        54
    36.3400        36
    36.4000        58
    36.4600        44
    36.5200        46
    36.5800        58
    36.6400        84
    36.7000        74
    36.7600        68
    36.8200        68
    36.8800        76
    36.9400        70
    37.0000        88
    37.0600        62
    37.1200        78
    37.1800        66
    37.2400        96
    37.3000        82
    37.3600        68
    37.4200        70
    37.4800        52
    37.5400        70
    37.6000        54
    37.6600        72
    37.7200        52
    37.7800        42
    37.8400        40
    37.9000        44
    37.9600        44
    38.0200        34
    38.0800        58
    38.1400        46
    38.2000        50
    38.2600        46
    38.3200        48
    38.3800        52
    38.4400        38
    38.5000        36
    38.5600        30
    38.6200        46
    38.6800        34
    38.7400        32
    38.8000        36
    38.8600        26
    38.9200        42
    38.9800        28
    39.0400        44
    39.1000        44
    39.1600        40
    39.2200        40
    39.2800        34
    39.3400        36
    39.4000        30
    39.4600        44
    39.5200        40
    39.5800        52
    39.6400        52
    39.7000        52
    39.7600        28
    39.8200        64
    39.8800        52
    39.9400        66
    40.0000        48
    40.0600        58
    40.1200        70
    40.1800        68
    40.2400        54
    40.3000        74
    40.3600        70
    40.4200        78
    40.4800        74
    40.5400        62
    40.6000        82
    40.6600        64
    40.7200        76
    40.7800        70
    40.8400        66
    40.9000        54
    40.9600        50
    41.0200        58
    41.0800        64
    41.1400        48
    41.2000        44
    41.2600        52
    41.3200        42
    41.3800        46
    41.4400        56
    41.5000        56
    41.5600        48
    41.6200        60
    41.6800        66
    41.7400        60
    41.8000        60
    41.8600        66
    41.9200        54
    41.9800        54
    42.0400        50
    42.1000        56
    42.1600        56
    42.2200        34
    42.2800        36
    42.3400        42
    42.4000        54
    42.4600        52
    42.5200        48
    42.5800        52
    42.6400        42
    42.7000        42
    42.7600        44
    42.8200        50
    42.8800        50
    42.9400        44
    43.0000        46
    43.0600        40
    43.1200        38
    43.1800        38
    43.2400        40
    43.3000        34
    43.3600        34
    43.4200        46
    43.4800        26
    43.5400        40
    43.6000        30
    43.6600        42
    43.7200        38
    43.7800        30
    43.8400        36
    43.9000        46
    43.9600        38
    44.0200        36
    44.0800        36
    44.1400        46
    44.2000        42
    44.2600        48
    44.3200        42
    44.3800        56
    44.4400        48
    44.5000        72
    44.5600        44
    44.6200        60
    44.6800        46
    44.7400        58
    44.8000        60
    44.8600        44
    44.9200        54
    44.9800        48
    45.0400        56
    45.1000        48
    45.1600        40
    45.2200        38
    45.2800        44
    45.3400        32
    45.4000        34
    45.4600        48
    45.5200        46
    45.5800        32
    45.6400        32
    45.7000        36
    45.7600        28
    45.8200        28
    45.8800        32
    45.9400        26
    46.0000        32
    46.0600        30
    46.1200        40
    46.1800        32
    46.2400        46
    46.3000        38
    46.3600        50
    46.4200        36
    46.4800        34
    46.5400        30
    46.6000        46
    46.6600        32
    46.7200        42
    46.7800        34
    46.8400        32
    46.9000        36
    46.9600        28
    47.0200        40
    47.0800        36
    47.1400        26
    47.2000        30
    47.2600        32
    47.3200        30
    47.3800        28
    47.4400        38
    47.5000        26
    47.5600        42
    47.6200        26
    47.6800        32
    47.7400        34
    47.8000        34
    47.8600        48
    47.9200        34
    47.9800        22
    48.0400        34
    48.1000        34
    48.1600        34
    48.2200        38
    48.2800        30
    48.3400        46
    48.4000        32
    48.4600        40
    48.5200        40
    48.5800        30
    48.6400        34
    48.7000        40
    48.7600        30
    48.8200        38
    48.8800        38
    48.9400        38
    49.0000        34
    49.0600        46
    49.1200        44
    49.1800        32
    49.2400        24
    49.3000        46
    49.3600        42
    49.4200        42
    49.4800        42
    49.5400        30
    49.6000        38
    49.6600        42
    49.7200        30
    49.7800        38
    49.8400        30
    49.9000        36
    49.9600        34
    50.0200        50
    50.0800        44
    50.1400        42
    50.2000        36
    50.2600        34
    50.3200        38
    50.3800        40
    50.4400        30
    50.5000        26
    50.5600        30
    50.6200        34
    50.6800        32
    50.7400        26
    50.8000        32
    50.8600        34
    50.9200        34
    50.9800        26
    51.0400        46
    51.1000        26
    51.1600        42
    51.2200        30
    51.2800        16
    51.3400        26
    51.4000        26
    51.4600        36
    51.5200        32
    51.5800        30
    51.6400        46
    51.7000        22
    51.7600        28
    51.8200        38
    51.8800        24
    51.9400        28
    52.0000        24
    52.0600        32
    52.1200        42
    52.1800        42
    52.2400        42
    52.3000        38
    52.3600        36
    52.4200        32
    52.4800        46
    52.5400        28
    52.6000        22
    52.6600        24
    52.7200        38
    52.7800        28
    52.8400        38
    52.9000        40
    52.9600        34
    53.0200        42
    53.0800        32
    53.1400        32
    53.2000        32
    53.2600        38
    53.3200        32
    53.3800        36
    53.4400        36
    53.5000        42
    53.5600        38
    53.6200        28
    53.6800        42
    53.7400        50
    53.8000        40
    53.8600        34
    53.9200        44
    53.9800        50
    54.0400        38
    54.1000        34
    54.1600        30
    54.2200        38
    54.2800        40
    54.3400        40
    54.4000        38
    54.4600        42
    54.5200        40
    54.5800        44
    54.6400        56
    54.7000        54
    54.7600        46
    54.8200        48
    54.8800        50
    54.9400        38
    55.0000        52
    55.0600        42
    55.1200        52
    55.1800        54
    55.2400        44
    55.3000        34
    55.3600        40
    55.4200        48
    55.4800        42
    55.5400        48
    55.6000        44
    55.6600        42
    55.7200        38
    55.7800        32
    55.8400        60
    55.9000        46
    55.9600        48
    56.0200        36
    56.0800        54
    56.1400        32
    56.2000        50
    56.2600        46
    56.3200        36
    56.3800        40
    56.4400        38
    56.5000        44
    56.5600        32
    56.6200        28
    56.6800        44
    56.7400        40
    56.8000        34
    56.8600        44
    56.9200        34
    56.9800        50
    57.0400        44
    57.1000        36
    57.1600        36
    57.2200        42
    57.2800        40
    57.3400        46
    57.4000        32
    57.4600        36
    57.5200        32
    57.5800        42
    57.6400        42
    57.7000        30
    57.7600        36
    57.8200        38
    57.8800        50
    57.9400        30
    58.0000        38
    58.0600        40
    58.1200        34
    58.1800        44
    58.2400        42
    58.3000        28
    58.3600        38
    58.4200        44
    58.4800        44
    58.5400        32
    58.6000        36
    58.6600        44
    58.7200        36
    58.7800        56
    58.8400        30
    58.9000        42
    58.9600        38
    59.0200        46
    59.0800        48
    59.1400        54
    59.2000        58
    59.2600        54
    59.3200        54
    59.3800        36
    59.4400        48
    59.5000        46
    59.5600        32
    59.6200        36
    59.6800        40
    59.7400        40
    59.8000        44
    59.8600        32
    59.9200        30
    59.9800        42
    60.0400        44
    60.1000        42
    60.1600        36
    60.2200        38
    60.2800        40
    60.3400        34
    60.4000        36
    60.4600        34
    60.5200        32
    60.5800        32
    60.6400        46
    60.7000        28
    60.7600        36
    60.8200        36
    60.8800        38
    60.9400        34
    61.0000        44
    61.0600        38
    61.1200        50
    61.1800        46
    61.2400        44
    61.3000        54
    61.3600        58
    61.4200        42
    61.4800        58
    61.5400        50
    61.6000        44
    61.6600        44
    61.7200        52
    61.7800        42
    61.8400        48
    61.9000        34
    61.9600        58
    62.0200        50
    62.0800        36
    62.1400        40
    62.2000        42
    62.2600        54
    62.3200        56
    62.3800        40
    62.4400        48
    62.5000        54
    62.5600        34
    62.6200        42
    62.6800        30
    62.7400        42
    62.8000        26
    62.8600        36
    62.9200        36
    62.9800        36
    63.0400        40
    63.1000        26
    63.1600        38
    63.2200        48
    63.2800        24
    63.3400        32
    63.4000        36
    63.4600        30
    63.5200        30
    63.5800        30
    63.6400        30
    63.7000        38
    63.7600        28
    63.8200        36
    63.8800        26
    63.9400        26
    64.0000        26
    64.0600        24
    64.1200        38
    64.1800        36
    64.2400        32
    64.3000        26
    64.3600        32
    64.4200        36
    64.4800        26
    64.5400        38
    64.6000        36
    64.6600        28
    64.7200        24
    64.7800        30
    64.8400        30
    64.9000        44
    64.9600        32
    65.0000        38