File: sl1/usgs/library06/DESCRIPT/new_xrd_results_to_be_added/Rhonda_Driscoll_xrd_runs/GDS821---Stilbite.txt
/////////////////////////////////////////////////////////////////////////////////
/// Profile Data Ascii Dump (XRD)                                             ///
/////////////////////////////////////////////////////////////////////////////////

  Group     : Swayze
  Data      : GDS821
  File Name : GDS821.RAW

# Profile Datafile
          comment             = Stilbite
          date & time         = 08-04-01 06:47:56

# Measurement Condition
    X-ray tube
          target              = Cu
          voltage             = 40.0 (kV)
          current             = 30.0 (mA)
    Slits
          divergence slit     = 2.00000 (deg)
          scatter slit        = 2.00000 (deg)
          receiving slit      = 0.15000 (mm)
    Scanning
          drive axis          = Theta-2Theta
          scan range          =    4.000 -   65.000
          scan mode           = Continuous Scan
          scan speed          =   2.0000 (deg/min)
          sampling pitch      =   0.0200 (deg)
          preset time         =   0.60 (sec)

# Data      [ Total No. = 3051 ]
  <2Theta>   <   I   >
     4.0000       184
     4.0600       178
     4.1200       168
     4.1800       186
     4.2400       164
     4.3000       182
     4.3600       180
     4.4200       156
     4.4800       158
     4.5400       162
     4.6000       160
     4.6600       162
     4.7200       154
     4.7800       160
     4.8400       154
     4.9000       166
     4.9600       162
     5.0200       166
     5.0800       146
     5.1400       150
     5.2000       130
     5.2600       150
     5.3200       178
     5.3800       140
     5.4400       158
     5.5000       148
     5.5600       158
     5.6200       148
     5.6800       174
     5.7400       144
     5.8000       162
     5.8600       168
     5.9200       152
     5.9800       142
     6.0400       144
     6.1000       150
     6.1600       142
     6.2200       122
     6.2800       144
     6.3400       136
     6.4000       120
     6.4600       128
     6.5200       130
     6.5800       164
     6.6400       116
     6.7000       112
     6.7600       114
     6.8200       132
     6.8800       106
     6.9400       124
     7.0000       124
     7.0600        86
     7.1200       118
     7.1800       124
     7.2400       104
     7.3000       112
     7.3600       100
     7.4200       126
     7.4800       118
     7.5400        94
     7.6000       110
     7.6600       108
     7.7200       110
     7.7800       106
     7.8400       104
     7.9000       118
     7.9600        90
     8.0200        92
     8.0800       110
     8.1400        98
     8.2000        96
     8.2600       106
     8.3200       132
     8.3800       122
     8.4400       100
     8.5000       110
     8.5600       120
     8.6200       122
     8.6800       130
     8.7400       122
     8.8000       138
     8.8600       122
     8.9200       158
     8.9800        98
     9.0400       128
     9.1000       140
     9.1600       172
     9.2200       182
     9.2800       236
     9.3400       278
     9.4000       354
     9.4600       432
     9.5200       490
     9.5800       622
     9.6400      1308
     9.7000      1494
     9.7600      1218
     9.8200       700
     9.8800       296
     9.9400       274
    10.0000       216
    10.0600       136
    10.1200       108
    10.1800        98
    10.2400       110
    10.3000        94
    10.3600       108
    10.4200       108
    10.4800        76
    10.5400       110
    10.6000        80
    10.6600       102
    10.7200        98
    10.7800        98
    10.8400        80
    10.9000        96
    10.9600       102
    11.0200        98
    11.0800       112
    11.1400        86
    11.2000        78
    11.2600        88
    11.3200        68
    11.3800        90
    11.4400        72
    11.5000        90
    11.5600        90
    11.6200        90
    11.6800        78
    11.7400        80
    11.8000        84
    11.8600        84
    11.9200        70
    11.9800        76
    12.0400        84
    12.1000        84
    12.1600        80
    12.2200        74
    12.2800        70
    12.3400        62
    12.4000        62
    12.4600        62
    12.5200        62
    12.5800        76
    12.6400        88
    12.7000        80
    12.7600        72
    12.8200        76
    12.8800        80
    12.9400        80
    13.0000        74
    13.0600        76
    13.1200        74
    13.1800        66
    13.2400        68
    13.3000        52
    13.3600        80
    13.4200        74
    13.4800        82
    13.5400        76
    13.6000        78
    13.6600        76
    13.7200        74
    13.7800        90
    13.8400        80
    13.9000        98
    13.9600        84
    14.0200        68
    14.0800        80
    14.1400        64
    14.2000        58
    14.2600        66
    14.3200        58
    14.3800        76
    14.4400        72
    14.5000        64
    14.5600        64
    14.6200        76
    14.6800        62
    14.7400        64
    14.8000        70
    14.8600        70
    14.9200        56
    14.9800        64
    15.0400        66
    15.1000        54
    15.1600        62
    15.2200        52
    15.2800        72
    15.3400        68
    15.4000        74
    15.4600        58
    15.5200        62
    15.5800        52
    15.6400        50
    15.7000        70
    15.7600        54
    15.8200        78
    15.8800        62
    15.9400        54
    16.0000        60
    16.0600        72
    16.1200        70
    16.1800        78
    16.2400        84
    16.3000       104
    16.3600        88
    16.4200        90
    16.4800        74
    16.5400        96
    16.6000        76
    16.6600       128
    16.7200       152
    16.7800       154
    16.8400       112
    16.9000        82
    16.9600        82
    17.0200        58
    17.0800        54
    17.1400        52
    17.2000        56
    17.2600        58
    17.3200        62
    17.3800        60
    17.4400        52
    17.5000        56
    17.5600        48
    17.6200        68
    17.6800        52
    17.7400        44
    17.8000        52
    17.8600        46
    17.9200        46
    17.9800        64
    18.0400        70
    18.1000        70
    18.1600        60
    18.2200        52
    18.2800        58
    18.3400        58
    18.4000        66
    18.4600        56
    18.5200        66
    18.5800        48
    18.6400        62
    18.7000        78
    18.7600        78
    18.8200        94
    18.8800       146
    18.9400       218
    19.0000       320
    19.0600       390
    19.1200       360
    19.1800       244
    19.2400       136
    19.3000        86
    19.3600       104
    19.4200       130
    19.4800       132
    19.5400        96
    19.6000        74
    19.6600        72
    19.7200        60
    19.7800        80
    19.8400        84
    19.9000        92
    19.9600        76
    20.0200        82
    20.0800        54
    20.1400        52
    20.2000        48
    20.2600        54
    20.3200        58
    20.3800        56
    20.4400        46
    20.5000        84
    20.5600        94
    20.6200       120
    20.6800       156
    20.7400       192
    20.8000       218
    20.8600       164
    20.9200        70
    20.9800        90
    21.0400        70
    21.1000        54
    21.1600        80
    21.2200        60
    21.2800        62
    21.3400        68
    21.4000        80
    21.4600       102
    21.5200       120
    21.5800       178
    21.6400       250
    21.7000       380
    21.7600       628
    21.8200      1164
    21.8800      1636
    21.9400      1756
    22.0000      1216
    22.0600       546
    22.1200       294
    22.1800       226
    22.2400       226
    22.3000       164
    22.3600        90
    22.4200        64
    22.4800        66
    22.5400        56
    22.6000        60
    22.6600        56
    22.7200        46
    22.7800        54
    22.8400        54
    22.9000        62
    22.9600        60
    23.0200        50
    23.0800        48
    23.1400        54
    23.2000        62
    23.2600        64
    23.3200        60
    23.3800        62
    23.4400        62
    23.5000        60
    23.5600        90
    23.6200        88
    23.6800       100
    23.7400       128
    23.8000       180
    23.8600       162
    23.9200       150
    23.9800       138
    24.0400        98
    24.1000        74
    24.1600        52
    24.2200        52
    24.2800        50
    24.3400        50
    24.4000        42
    24.4600        42
    24.5200        68
    24.5800        44
    24.6400        58
    24.7000        64
    24.7600        42
    24.8200        42
    24.8800        48
    24.9400        58
    25.0000        66
    25.0600        56
    25.1200        48
    25.1800        52
    25.2400        60
    25.3000        76
    25.3600        70
    25.4200        84
    25.4800       144
    25.5400       152
    25.6000       134
    25.6600       122
    25.7200        84
    25.7800        78
    25.8400        66
    25.9000        88
    25.9600        72
    26.0200        94
    26.0800       124
    26.1400       218
    26.2000       258
    26.2600       236
    26.3200       234
    26.3800       170
    26.4400       114
    26.5000        78
    26.5600        62
    26.6200        56
    26.6800        72
    26.7400        64
    26.8000        72
    26.8600        60
    26.9200        44
    26.9800        46
    27.0400        46
    27.1000        44
    27.1600        50
    27.2200        46
    27.2800        60
    27.3400        54
    27.4000        62
    27.4600        54
    27.5200        42
    27.5800        66
    27.6400        68
    27.7000        64
    27.7600       100
    27.8200       136
    27.8800       218
    27.9400       300
    28.0000       290
    28.0600       216
    28.1200       160
    28.1800       110
    28.2400        78
    28.3000        60
    28.3600        68
    28.4200        72
    28.4800        70
    28.5400        80
    28.6000        84
    28.6600       104
    28.7200       118
    28.7800       122
    28.8400       128
    28.9000        96
    28.9600        68
    29.0200        88
    29.0800        90
    29.1400       110
    29.2000       166
    29.2600       278
    29.3200       494
    29.3800       736
    29.4400       994
    29.5000      1062
    29.5600       832
    29.6200       532
    29.6800       378
    29.7400       382
    29.8000       370
    29.8600       322
    29.9200       180
    29.9800       112
    30.0400        96
    30.1000        98
    30.1600        76
    30.2200        72
    30.2800        48
    30.3400        44
    30.4000        50
    30.4600        56
    30.5200        62
    30.5800        58
    30.6400        58
    30.7000        44
    30.7600        42
    30.8200        48
    30.8800        60
    30.9400        64
    31.0000        96
    31.0600       132
    31.1200       100
    31.1800       110
    31.2400        82
    31.3000        52
    31.3600        44
    31.4200        68
    31.4800        58
    31.5400        58
    31.6000        70
    31.6600       102
    31.7200        90
    31.7800        74
    31.8400        84
    31.9000        76
    31.9600        84
    32.0200        94
    32.0800       130
    32.1400       256
    32.2000       358
    32.2600       462
    32.3200       416
    32.3800       268
    32.4400       128
    32.5000       102
    32.5600        58
    32.6200        62
    32.6800        74
    32.7400        44
    32.8000        58
    32.8600        68
    32.9200        88
    32.9800        96
    33.0400        94
    33.1000        76
    33.1600        78
    33.2200        72
    33.2800        74
    33.3400        56
    33.4000        62
    33.4600        58
    33.5200        42
    33.5800        58
    33.6400        54
    33.7000        54
    33.7600        56
    33.8200        48
    33.8800        46
    33.9400        48
    34.0000        48
    34.0600        58
    34.1200        54
    34.1800        60
    34.2400        88
    34.3000        88
    34.3600       106
    34.4200       120
    34.4800        88
    34.5400        86
    34.6000        84
    34.6600        74
    34.7200        84
    34.7800       120
    34.8400       120
    34.9000       152
    34.9600       162
    35.0200       190
    35.0800       136
    35.1400       148
    35.2000        84
    35.2600        84
    35.3200        80
    35.3800        84
    35.4400        82
    35.5000        90
    35.5600        88
    35.6200        78
    35.6800        86
    35.7400       106
    35.8000       116
    35.8600        84
    35.9200       104
    35.9800       108
    36.0400       110
    36.1000       136
    36.1600       130
    36.2200       100
    36.2800        96
    36.3400        74
    36.4000        64
    36.4600        68
    36.5200        98
    36.5800        68
    36.6400        58
    36.7000        78
    36.7600        60
    36.8200        62
    36.8800        56
    36.9400        44
    37.0000        52
    37.0600        40
    37.1200        38
    37.1800        48
    37.2400        44
    37.3000        48
    37.3600        50
    37.4200        54
    37.4800        64
    37.5400        54
    37.6000        40
    37.6600        58
    37.7200        40
    37.7800        38
    37.8400        56
    37.9000        52
    37.9600        64
    38.0200        60
    38.0800        96
    38.1400       100
    38.2000       130
    38.2600       142
    38.3200       106
    38.3800       128
    38.4400       100
    38.5000        70
    38.5600        56
    38.6200        66
    38.6800        42
    38.7400        62
    38.8000        60
    38.8600        74
    38.9200        72
    38.9800       102
    39.0400        70
    39.1000        52
    39.1600        54
    39.2200        48
    39.2800        46
    39.3400        44
    39.4000        42
    39.4600        42
    39.5200        46
    39.5800        66
    39.6400        68
    39.7000        56
    39.7600        62
    39.8200        48
    39.8800        46
    39.9400        46
    40.0000        40
    40.0600        52
    40.1200        56
    40.1800        78
    40.2400        68
    40.3000        56
    40.3600        76
    40.4200        88
    40.4800        92
    40.5400        74
    40.6000        54
    40.6600        70
    40.7200        82
    40.7800        76
    40.8400        86
    40.9000       104
    40.9600        68
    41.0200        68
    41.0800        62
    41.1400        56
    41.2000        52
    41.2600        50
    41.3200        44
    41.3800        34
    41.4400        42
    41.5000        44
    41.5600        42
    41.6200        58
    41.6800        74
    41.7400        64
    41.8000        68
    41.8600        62
    41.9200        50
    41.9800        58
    42.0400        42
    42.1000        50
    42.1600        40
    42.2200        40
    42.2800        36
    42.3400        48
    42.4000        58
    42.4600        78
    42.5200       104
    42.5800       108
    42.6400       112
    42.7000        64
    42.7600        68
    42.8200        64
    42.8800        58
    42.9400        90
    43.0000       112
    43.0600       124
    43.1200       106
    43.1800        98
    43.2400        38
    43.3000        54
    43.3600        50
    43.4200        54
    43.4800        68
    43.5400        88
    43.6000        72
    43.6600        86
    43.7200        88
    43.7800       128
    43.8400       150
    43.9000       112
    43.9600       116
    44.0200       100
    44.0800        96
    44.1400        64
    44.2000        98
    44.2600       104
    44.3200        92
    44.3800        82
    44.4400        88
    44.5000       114
    44.5600       110
    44.6200       154
    44.6800       140
    44.7400        98
    44.8000        94
    44.8600        84
    44.9200        72
    44.9800        62
    45.0400        54
    45.1000        48
    45.1600        54
    45.2200        60
    45.2800        40
    45.3400        44
    45.4000        64
    45.4600        46
    45.5200        42
    45.5800        42
    45.6400        40
    45.7000        44
    45.7600        54
    45.8200        64
    45.8800        38
    45.9400        56
    46.0000        48
    46.0600        42
    46.1200        40
    46.1800        46
    46.2400        40
    46.3000        50
    46.3600        52
    46.4200        44
    46.4800        26
    46.5400        60
    46.6000        62
    46.6600        36
    46.7200        50
    46.7800        54
    46.8400        34
    46.9000        40
    46.9600        38
    47.0200        26
    47.0800        38
    47.1400        46
    47.2000        36
    47.2600        50
    47.3200        52
    47.3800        50
    47.4400        48
    47.5000        38
    47.5600        36
    47.6200        40
    47.6800        44
    47.7400        48
    47.8000        64
    47.8600        88
    47.9200       118
    47.9800       116
    48.0400       104
    48.1000       114
    48.1600        82
    48.2200        72
    48.2800        64
    48.3400        62
    48.4000        40
    48.4600        36
    48.5200        54
    48.5800        54
    48.6400        68
    48.7000        62
    48.7600        48
    48.8200        58
    48.8800        60
    48.9400        44
    49.0000        74
    49.0600        52
    49.1200        52
    49.1800        80
    49.2400        56
    49.3000        56
    49.3600        58
    49.4200        62
    49.4800        54
    49.5400        58
    49.6000        54
    49.6600        62
    49.7200        68
    49.7800       100
    49.8400       144
    49.9000       172
    49.9600       232
    50.0200       316
    50.0800       342
    50.1400       204
    50.2000       172
    50.2600       122
    50.3200       102
    50.3800       104
    50.4400       106
    50.5000       122
    50.5600       108
    50.6200        98
    50.6800        66
    50.7400        68
    50.8000        56
    50.8600        70
    50.9200        46
    50.9800        46
    51.0400        72
    51.1000        82
    51.1600       118
    51.2200       128
    51.2800       104
    51.3400       100
    51.4000        82
    51.4600        78
    51.5200        58
    51.5800        46
    51.6400        50
    51.7000        48
    51.7600        56
    51.8200        32
    51.8800        48
    51.9400        36
    52.0000        38
    52.0600        32
    52.1200        46
    52.1800        60
    52.2400        50
    52.3000        38
    52.3600        48
    52.4200        36
    52.4800        50
    52.5400        40
    52.6000        56
    52.6600        66
    52.7200        52
    52.7800        68
    52.8400        78
    52.9000        86
    52.9600       106
    53.0200        94
    53.0800        84
    53.1400        86
    53.2000        66
    53.2600        50
    53.3200        36
    53.3800        44
    53.4400        32
    53.5000        50
    53.5600        40
    53.6200        48
    53.6800        50
    53.7400        56
    53.8000        60
    53.8600        42
    53.9200        46
    53.9800        42
    54.0400        50
    54.1000        56
    54.1600        48
    54.2200        40
    54.2800        60
    54.3400        68
    54.4000        70
    54.4600        52
    54.5200        62
    54.5800        36
    54.6400        34
    54.7000        50
    54.7600        68
    54.8200        66
    54.8800        68
    54.9400        62
    55.0000        66
    55.0600        66
    55.1200        64
    55.1800        78
    55.2400        70
    55.3000        64
    55.3600        56
    55.4200        42
    55.4800        50
    55.5400        38
    55.6000        42
    55.6600        40
    55.7200        38
    55.7800        64
    55.8400        68
    55.9000        52
    55.9600        66
    56.0200        66
    56.0800        62
    56.1400        70
    56.2000        66
    56.2600        68
    56.3200        64
    56.3800        38
    56.4400        48
    56.5000        44
    56.5600        40
    56.6200        38
    56.6800        54
    56.7400        40
    56.8000        50
    56.8600        34
    56.9200        56
    56.9800        40
    57.0400        36
    57.1000        52
    57.1600        46
    57.2200        64
    57.2800        56
    57.3400        66
    57.4000        58
    57.4600        48
    57.5200        50
    57.5800        66
    57.6400        76
    57.7000        84
    57.7600        82
    57.8200       134
    57.8800       134
    57.9400       130
    58.0000       130
    58.0600       126
    58.1200       106
    58.1800       126
    58.2400       118
    58.3000        96
    58.3600       110
    58.4200        86
    58.4800        56
    58.5400        66
    58.6000        58
    58.6600        46
    58.7200        64
    58.7800        54
    58.8400        66
    58.9000        56
    58.9600        72
    59.0200        66
    59.0800        70
    59.1400        62
    59.2000        74
    59.2600        68
    59.3200        90
    59.3800       124
    59.4400       122
    59.5000       128
    59.5600       108
    59.6200       112
    59.6800        90
    59.7400        82
    59.8000        66
    59.8600        64
    59.9200        48
    59.9800        44
    60.0400        42
    60.1000        50
    60.1600        30
    60.2200        32
    60.2800        36
    60.3400        44
    60.4000        38
    60.4600        38
    60.5200        40
    60.5800        34
    60.6400        24
    60.7000        44
    60.7600        28
    60.8200        28
    60.8800        36
    60.9400        48
    61.0000        40
    61.0600        40
    61.1200        76
    61.1800        44
    61.2400        58
    61.3000        52
    61.3600        68
    61.4200        54
    61.4800        54
    61.5400        30
    61.6000        36
    61.6600        34
    61.7200        38
    61.7800        34
    61.8400        48
    61.9000        50
    61.9600        38
    62.0200        52
    62.0800        56
    62.1400        66
    62.2000        62
    62.2600        52
    62.3200        46
    62.3800        54
    62.4400        58
    62.5000        52
    62.5600        38
    62.6200        48
    62.6800        56
    62.7400        42
    62.8000        40
    62.8600        36
    62.9200        46
    62.9800        44
    63.0400        48
    63.1000        38
    63.1600        52
    63.2200        52
    63.2800        56
    63.3400        56
    63.4000        48
    63.4600        48
    63.5200        40
    63.5800        44
    63.6400        40
    63.7000        38
    63.7600        42
    63.8200        32
    63.8800        28
    63.9400        44
    64.0000        50
    64.0600        46
    64.1200        44
    64.1800        46
    64.2400        52
    64.3000        44
    64.3600        58
    64.4200        56
    64.4800        52
    64.5400        60
    64.6000        68
    64.6600        78
    64.7200        72
    64.7800        62
    64.8400        58
    64.9000        74
    64.9600        68
    65.0000        52