File: sl1/usgs/library06/DESCRIPT/new_xrd_results_to_be_added/Rhonda_Driscoll_xrd_runs/GDS818---Palygorskite.txt
/////////////////////////////////////////////////////////////////////////////////
/// Profile Data Ascii Dump (XRD)                                             ///
/////////////////////////////////////////////////////////////////////////////////

  Group     : Swayze
  Data      : GDS818
  File Name : GDS818.RAW

# Profile Datafile
          comment             = Palygorskite
          date & time         = 08-04-01 06:17:01

# Measurement Condition
    X-ray tube
          target              = Cu
          voltage             = 40.0 (kV)
          current             = 30.0 (mA)
    Slits
          divergence slit     = 2.00000 (deg)
          scatter slit        = 2.00000 (deg)
          receiving slit      = 0.15000 (mm)
    Scanning
          drive axis          = Theta-2Theta
          scan range          =    4.000 -   65.000
          scan mode           = Continuous Scan
          scan speed          =   2.0000 (deg/min)
          sampling pitch      =   0.0200 (deg)
          preset time         =   0.60 (sec)

# Data      [ Total No. = 3051 ]
  <2Theta>   <   I   >
     4.0000       234
     4.0600       238
     4.1200       204
     4.1800       222
     4.2400       206
     4.3000       194
     4.3600       222
     4.4200       210
     4.4800       180
     4.5400       186
     4.6000       216
     4.6600       200
     4.7200       188
     4.7800       178
     4.8400       200
     4.9000       154
     4.9600       188
     5.0200       194
     5.0800       180
     5.1400       196
     5.2000       182
     5.2600       150
     5.3200       194
     5.3800       174
     5.4400       168
     5.5000       184
     5.5600       192
     5.6200       176
     5.6800       180
     5.7400       168
     5.8000       178
     5.8600       178
     5.9200       176
     5.9800       172
     6.0400       178
     6.1000       172
     6.1600       176
     6.2200       174
     6.2800       180
     6.3400       172
     6.4000       140
     6.4600       154
     6.5200       172
     6.5800       162
     6.6400       154
     6.7000       152
     6.7600       134
     6.8200       134
     6.8800       140
     6.9400       130
     7.0000       140
     7.0600       158
     7.1200       134
     7.1800       158
     7.2400       124
     7.3000       136
     7.3600       182
     7.4200       144
     7.4800       176
     7.5400       168
     7.6000       170
     7.6600       170
     7.7200       206
     7.7800       228
     7.8400       232
     7.9000       270
     7.9600       316
     8.0200       384
     8.0800       404
     8.1400       472
     8.2000       574
     8.2600       678
     8.3200       872
     8.3800      1132
     8.4400      1382
     8.5000      1306
     8.5600      1150
     8.6200       822
     8.6800       568
     8.7400       388
     8.8000       236
     8.8600       214
     8.9200       158
     8.9800       178
     9.0400       144
     9.1000       146
     9.1600       130
     9.2200       148
     9.2800       150
     9.3400       146
     9.4000       132
     9.4600       122
     9.5200       138
     9.5800       104
     9.6400       134
     9.7000       144
     9.7600       108
     9.8200       136
     9.8800       136
     9.9400       102
    10.0000       108
    10.0600       116
    10.1200       122
    10.1800       112
    10.2400       108
    10.3000        92
    10.3600       108
    10.4200       102
    10.4800       116
    10.5400       108
    10.6000       108
    10.6600        98
    10.7200        86
    10.7800        96
    10.8400       102
    10.9000       110
    10.9600        92
    11.0200        94
    11.0800        82
    11.1400        92
    11.2000        84
    11.2600        72
    11.3200        82
    11.3800        86
    11.4400       100
    11.5000        86
    11.5600       108
    11.6200       102
    11.6800       106
    11.7400        74
    11.8000        80
    11.8600        80
    11.9200       106
    11.9800        92
    12.0400        80
    12.1000        84
    12.1600        92
    12.2200        88
    12.2800        88
    12.3400        74
    12.4000        80
    12.4600        80
    12.5200        86
    12.5800        70
    12.6400        88
    12.7000        66
    12.7600        80
    12.8200        72
    12.8800        76
    12.9400        72
    13.0000        82
    13.0600        78
    13.1200        98
    13.1800        70
    13.2400        84
    13.3000       106
    13.3600        72
    13.4200        90
    13.4800        98
    13.5400       112
    13.6000       118
    13.6600       150
    13.7200       186
    13.7800       204
    13.8400       276
    13.9000       286
    13.9600       282
    14.0200       234
    14.0800       184
    14.1400       160
    14.2000       130
    14.2600        88
    14.3200        92
    14.3800        78
    14.4400        82
    14.5000        66
    14.5600        84
    14.6200        86
    14.6800        76
    14.7400        86
    14.8000        78
    14.8600        60
    14.9200        76
    14.9800        58
    15.0400        78
    15.1000        76
    15.1600        72
    15.2200        62
    15.2800        58
    15.3400        70
    15.4000        70
    15.4600        64
    15.5200        66
    15.5800        58
    15.6400        80
    15.7000        56
    15.7600        62
    15.8200        68
    15.8800        82
    15.9400        72
    16.0000        76
    16.0600        98
    16.1200        90
    16.1800       112
    16.2400       122
    16.3000       150
    16.3600       218
    16.4200       214
    16.4800       176
    16.5400        98
    16.6000        92
    16.6600        90
    16.7200        72
    16.7800        72
    16.8400        54
    16.9000        54
    16.9600        72
    17.0200        74
    17.0800        46
    17.1400        56
    17.2000        68
    17.2600        68
    17.3200        66
    17.3800        60
    17.4400        64
    17.5000        64
    17.5600        68
    17.6200        78
    17.6800        66
    17.7400        78
    17.8000        68
    17.8600        58
    17.9200        70
    17.9800        64
    18.0400        64
    18.1000        68
    18.1600        58
    18.2200        50
    18.2800        66
    18.3400        56
    18.4000        68
    18.4600        74
    18.5200        66
    18.5800        66
    18.6400        64
    18.7000        96
    18.7600        58
    18.8200        58
    18.8800        64
    18.9400        60
    19.0000        64
    19.0600        64
    19.1200        62
    19.1800        70
    19.2400        82
    19.3000        84
    19.3600        84
    19.4200        96
    19.4800       108
    19.5400       126
    19.6000       142
    19.6600       212
    19.7200       288
    19.7800       354
    19.8400       428
    19.9000       334
    19.9600       226
    20.0200       146
    20.0800        94
    20.1400       112
    20.2000       100
    20.2600        82
    20.3200        94
    20.3800        98
    20.4400       108
    20.5000        96
    20.5600        84
    20.6200        82
    20.6800       112
    20.7400        74
    20.8000        90
    20.8600       116
    20.9200        96
    20.9800       134
    21.0400       136
    21.1000       148
    21.1600       170
    21.2200       186
    21.2800       216
    21.3400       214
    21.4000       214
    21.4600       216
    21.5200       164
    21.5800       148
    21.6400       136
    21.7000       122
    21.7600        94
    21.8200        82
    21.8800        78
    21.9400        86
    22.0000        82
    22.0600        76
    22.1200        72
    22.1800        82
    22.2400        84
    22.3000        70
    22.3600        70
    22.4200        64
    22.4800        54
    22.5400        78
    22.6000        64
    22.6600        62
    22.7200        76
    22.7800        48
    22.8400        56
    22.9000        60
    22.9600        52
    23.0200        48
    23.0800        54
    23.1400        52
    23.2000        68
    23.2600        52
    23.3200        56
    23.3800        64
    23.4400        64
    23.5000        74
    23.5600        64
    23.6200        52
    23.6800        64
    23.7400        38
    23.8000        52
    23.8600        54
    23.9200        50
    23.9800        60
    24.0400        68
    24.1000        80
    24.1600        94
    24.2200       112
    24.2800       126
    24.3400       148
    24.4000       148
    24.4600       134
    24.5200       102
    24.5800        68
    24.6400        62
    24.7000        46
    24.7600        64
    24.8200        50
    24.8800        56
    24.9400        62
    25.0000        40
    25.0600        54
    25.1200        58
    25.1800        52
    25.2400        50
    25.3000        42
    25.3600        44
    25.4200        56
    25.4800        48
    25.5400        56
    25.6000        48
    25.6600        76
    25.7200        56
    25.7800        84
    25.8400        80
    25.9000        64
    25.9600        62
    26.0200        70
    26.0800        74
    26.1400        70
    26.2000        52
    26.2600        64
    26.3200        74
    26.3800        90
    26.4400        74
    26.5000        82
    26.5600        82
    26.6200        76
    26.6800        78
    26.7400       112
    26.8000        76
    26.8600        86
    26.9200        80
    26.9800        92
    27.0400        74
    27.1000        92
    27.1600        92
    27.2200       110
    27.2800       134
    27.3400       138
    27.4000       158
    27.4600       142
    27.5200       198
    27.5800       182
    27.6400       180
    27.7000       224
    27.7600       202
    27.8200       232
    27.8800       258
    27.9400       286
    28.0000       316
    28.0600       354
    28.1200       328
    28.1800       340
    28.2400       312
    28.3000       210
    28.3600       172
    28.4200       138
    28.4800        94
    28.5400       104
    28.6000        80
    28.6600        90
    28.7200        68
    28.7800        70
    28.8400        68
    28.9000        50
    28.9600        68
    29.0200        56
    29.0800        72
    29.1400        62
    29.2000        48
    29.2600        56
    29.3200        46
    29.3800        60
    29.4400        64
    29.5000        68
    29.5600        60
    29.6200        56
    29.6800        74
    29.7400        82
    29.8000        70
    29.8600        74
    29.9200        88
    29.9800        90
    30.0400        78
    30.1000        80
    30.1600        76
    30.2200        56
    30.2800        56
    30.3400        54
    30.4000        46
    30.4600        58
    30.5200        48
    30.5800        40
    30.6400        22
    30.7000        40
    30.7600        50
    30.8200        48
    30.8800        40
    30.9400        34
    31.0000        42
    31.0600        48
    31.1200        46
    31.1800        40
    31.2400        38
    31.3000        38
    31.3600        34
    31.4200        42
    31.4800        32
    31.5400        44
    31.6000        38
    31.6600        38
    31.7200        42
    31.7800        36
    31.8400        40
    31.9000        46
    31.9600        32
    32.0200        40
    32.0800        34
    32.1400        26
    32.2000        36
    32.2600        40
    32.3200        30
    32.3800        36
    32.4400        34
    32.5000        46
    32.5600        30
    32.6200        48
    32.6800        48
    32.7400        44
    32.8000        58
    32.8600        58
    32.9200        58
    32.9800        58
    33.0400        54
    33.1000        42
    33.1600        46
    33.2200        50
    33.2800        56
    33.3400        46
    33.4000        50
    33.4600        42
    33.5200        44
    33.5800        46
    33.6400        46
    33.7000        58
    33.7600        74
    33.8200        72
    33.8800        80
    33.9400        88
    34.0000        86
    34.0600        92
    34.1200       106
    34.1800       108
    34.2400       118
    34.3000       136
    34.3600       132
    34.4200       126
    34.4800       134
    34.5400       170
    34.6000       182
    34.6600       192
    34.7200       194
    34.7800       190
    34.8400       152
    34.9000       176
    34.9600       162
    35.0200       180
    35.0800       160
    35.1400       156
    35.2000       134
    35.2600       130
    35.3200       122
    35.3800       138
    35.4400       158
    35.5000       152
    35.5600       158
    35.6200       192
    35.6800       152
    35.7400       184
    35.8000       160
    35.8600       138
    35.9200       136
    35.9800       114
    36.0400        76
    36.1000        76
    36.1600        60
    36.2200        62
    36.2800        74
    36.3400        64
    36.4000        62
    36.4600        42
    36.5200        50
    36.5800        60
    36.6400        48
    36.7000        40
    36.7600        42
    36.8200        34
    36.8800        44
    36.9400        32
    37.0000        32
    37.0600        34
    37.1200        28
    37.1800        36
    37.2400        46
    37.3000        26
    37.3600        30
    37.4200        44
    37.4800        28
    37.5400        38
    37.6000        42
    37.6600        36
    37.7200        40
    37.7800        40
    37.8400        48
    37.9000        36
    37.9600        30
    38.0200        48
    38.0800        34
    38.1400        48
    38.2000        46
    38.2600        28
    38.3200        36
    38.3800        50
    38.4400        48
    38.5000        60
    38.5600        46
    38.6200        56
    38.6800        56
    38.7400        46
    38.8000        68
    38.8600        52
    38.9200        82
    38.9800        58
    39.0400        66
    39.1000        48
    39.1600        56
    39.2200        50
    39.2800        48
    39.3400        54
    39.4000        50
    39.4600        42
    39.5200        44
    39.5800        42
    39.6400        56
    39.7000        50
    39.7600        56
    39.8200        54
    39.8800        66
    39.9400        66
    40.0000        58
    40.0600        46
    40.1200        54
    40.1800        52
    40.2400        48
    40.3000        62
    40.3600        68
    40.4200        52
    40.4800        54
    40.5400        50
    40.6000        40
    40.6600        40
    40.7200        38
    40.7800        44
    40.8400        48
    40.9000        30
    40.9600        42
    41.0200        42
    41.0800        48
    41.1400        48
    41.2000        44
    41.2600        50
    41.3200        62
    41.3800        72
    41.4400        58
    41.5000        62
    41.5600        74
    41.6200        58
    41.6800        80
    41.7400        64
    41.8000        76
    41.8600        66
    41.9200        76
    41.9800        82
    42.0400        66
    42.1000        74
    42.1600        68
    42.2200        54
    42.2800        72
    42.3400        96
    42.4000        90
    42.4600        84
    42.5200        82
    42.5800        92
    42.6400       108
    42.7000       100
    42.7600       102
    42.8200       104
    42.8800        94
    42.9400       102
    43.0000        70
    43.0600        68
    43.1200        58
    43.1800        50
    43.2400        48
    43.3000        42
    43.3600        36
    43.4200        40
    43.4800        38
    43.5400        30
    43.6000        48
    43.6600        36
    43.7200        32
    43.7800        38
    43.8400        40
    43.9000        24
    43.9600        32
    44.0200        26
    44.0800        44
    44.1400        34
    44.2000        36
    44.2600        32
    44.3200        32
    44.3800        30
    44.4400        26
    44.5000        24
    44.5600        36
    44.6200        32
    44.6800        36
    44.7400        34
    44.8000        26
    44.8600        22
    44.9200        32
    44.9800        38
    45.0400        46
    45.1000        40
    45.1600        26
    45.2200        28
    45.2800        38
    45.3400        30
    45.4000        36
    45.4600        28
    45.5200        28
    45.5800        30
    45.6400        32
    45.7000        36
    45.7600        20
    45.8200        20
    45.8800        32
    45.9400        24
    46.0000        30
    46.0600        26
    46.1200        34
    46.1800        40
    46.2400        40
    46.3000        34
    46.3600        46
    46.4200        30
    46.4800        30
    46.5400        38
    46.6000        38
    46.6600        26
    46.7200        28
    46.7800        32
    46.8400        34
    46.9000        34
    46.9600        22
    47.0200        32
    47.0800        30
    47.1400        36
    47.2000        34
    47.2600        22
    47.3200        32
    47.3800        44
    47.4400        30
    47.5000        28
    47.5600        36
    47.6200        32
    47.6800        40
    47.7400        44
    47.8000        42
    47.8600        32
    47.9200        32
    47.9800        32
    48.0400        34
    48.1000        42
    48.1600        48
    48.2200        36
    48.2800        30
    48.3400        40
    48.4000        40
    48.4600        28
    48.5200        38
    48.5800        30
    48.6400        34
    48.7000        34
    48.7600        32
    48.8200        38
    48.8800        48
    48.9400        28
    49.0000        32
    49.0600        24
    49.1200        26
    49.1800        28
    49.2400        38
    49.3000        20
    49.3600        34
    49.4200        32
    49.4800        42
    49.5400        36
    49.6000        32
    49.6600        40
    49.7200        30
    49.7800        32
    49.8400        38
    49.9000        32
    49.9600        46
    50.0200        42
    50.0800        34
    50.1400        26
    50.2000        28
    50.2600        30
    50.3200        34
    50.3800        52
    50.4400        44
    50.5000        44
    50.5600        48
    50.6200        54
    50.6800        84
    50.7400        64
    50.8000        70
    50.8600        54
    50.9200        54
    50.9800        54
    51.0400        38
    51.1000        38
    51.1600        50
    51.2200        40
    51.2800        38
    51.3400        32
    51.4000        42
    51.4600        46
    51.5200        50
    51.5800        56
    51.6400        60
    51.7000        50
    51.7600        44
    51.8200        44
    51.8800        36
    51.9400        56
    52.0000        34
    52.0600        46
    52.1200        44
    52.1800        40
    52.2400        38
    52.3000        42
    52.3600        40
    52.4200        42
    52.4800        32
    52.5400        44
    52.6000        40
    52.6600        34
    52.7200        36
    52.7800        38
    52.8400        40
    52.9000        40
    52.9600        48
    53.0200        30
    53.0800        46
    53.1400        40
    53.2000        28
    53.2600        56
    53.3200        36
    53.3800        50
    53.4400        38
    53.5000        46
    53.5600        38
    53.6200        36
    53.6800        22
    53.7400        34
    53.8000        30
    53.8600        36
    53.9200        44
    53.9800        34
    54.0400        44
    54.1000        40
    54.1600        38
    54.2200        42
    54.2800        40
    54.3400        44
    54.4000        44
    54.4600        56
    54.5200        36
    54.5800        52
    54.6400        54
    54.7000        54
    54.7600        62
    54.8200        52
    54.8800        60
    54.9400        60
    55.0000        62
    55.0600        78
    55.1200        50
    55.1800        64
    55.2400        58
    55.3000        42
    55.3600        38
    55.4200        48
    55.4800        40
    55.5400        36
    55.6000        26
    55.6600        26
    55.7200        28
    55.7800        32
    55.8400        26
    55.9000        28
    55.9600        32
    56.0200        22
    56.0800        32
    56.1400        44
    56.2000        40
    56.2600        30
    56.3200        28
    56.3800        38
    56.4400        32
    56.5000        28
    56.5600        26
    56.6200        28
    56.6800        34
    56.7400        38
    56.8000        32
    56.8600        54
    56.9200        34
    56.9800        46
    57.0400        46
    57.1000        48
    57.1600        54
    57.2200        48
    57.2800        44
    57.3400        36
    57.4000        44
    57.4600        34
    57.5200        24
    57.5800        36
    57.6400        42
    57.7000        38
    57.7600        22
    57.8200        30
    57.8800        32
    57.9400        40
    58.0000        40
    58.0600        42
    58.1200        36
    58.1800        46
    58.2400        36
    58.3000        22
    58.3600        40
    58.4200        40
    58.4800        42
    58.5400        30
    58.6000        44
    58.6600        38
    58.7200        38
    58.7800        34
    58.8400        36
    58.9000        56
    58.9600        40
    59.0200        46
    59.0800        72
    59.1400        52
    59.2000        52
    59.2600        54
    59.3200        54
    59.3800        46
    59.4400        36
    59.5000        36
    59.5600        52
    59.6200        60
    59.6800        44
    59.7400        40
    59.8000        42
    59.8600        36
    59.9200        44
    59.9800        52
    60.0400        38
    60.1000        32
    60.1600        54
    60.2200        54
    60.2800        52
    60.3400        50
    60.4000        46
    60.4600        60
    60.5200        56
    60.5800        36
    60.6400        38
    60.7000        44
    60.7600        54
    60.8200        36
    60.8800        34
    60.9400        48
    61.0000        46
    61.0600        46
    61.1200        32
    61.1800        46
    61.2400        44
    61.3000        38
    61.3600        60
    61.4200        58
    61.4800        64
    61.5400        50
    61.6000        72
    61.6600        54
    61.7200        56
    61.7800        54
    61.8400        42
    61.9000        46
    61.9600        24
    62.0200        34
    62.0800        40
    62.1400        46
    62.2000        56
    62.2600        46
    62.3200        62
    62.3800        68
    62.4400        58
    62.5000        48
    62.5600        44
    62.6200        42
    62.6800        40
    62.7400        40
    62.8000        30
    62.8600        24
    62.9200        28
    62.9800        32
    63.0400        32
    63.1000        30
    63.1600        28
    63.2200        30
    63.2800        28
    63.3400        24
    63.4000        32
    63.4600        26
    63.5200        44
    63.5800        36
    63.6400        30
    63.7000        26
    63.7600        38
    63.8200        28
    63.8800        34
    63.9400        28
    64.0000        28
    64.0600        36
    64.1200        34
    64.1800        20
    64.2400        36
    64.3000        34
    64.3600        42
    64.4200        22
    64.4800        30
    64.5400        34
    64.6000        34
    64.6600        20
    64.7200        32
    64.7800        26
    64.8400        38
    64.9000        40
    64.9600        58
    65.0000        38