File: sl1/usgs/library06/DESCRIPT/new_xrd_results_to_be_added/Rhonda_Driscoll_xrd_runs/GDS80---Syn-Lepidocrocite.txt
/////////////////////////////////////////////////////////////////////////////////
/// Profile Data Ascii Dump (XRD)                                             ///
/////////////////////////////////////////////////////////////////////////////////

  Group     : Swayze
  Data      : GDS80
  File Name : GDS80.RAW

# Profile Datafile
          comment             = Syn Lepidocrosite
          date & time         = 08-04-14 08:55:48

# Measurement Condition
    X-ray tube
          target              = Cu
          voltage             = 40.0 (kV)
          current             = 30.0 (mA)
    Slits
          divergence slit     = 2.00000 (deg)
          scatter slit        = 2.00000 (deg)
          receiving slit      = 0.15000 (mm)
    Scanning
          drive axis          = Theta-2Theta
          scan range          =    4.000 -   65.000
          scan mode           = Continuous Scan
          scan speed          =   2.0000 (deg/min)
          sampling pitch      =   0.0200 (deg)
          preset time         =   0.60 (sec)

# Data      [ Total No. = 3051 ]
  <2Theta>   <   I   >
     4.0000       180
     4.0600       200
     4.1200       176
     4.1800       178
     4.2400       206
     4.3000       186
     4.3600       184
     4.4200       158
     4.4800       178
     4.5400       206
     4.6000       196
     4.6600       176
     4.7200       178
     4.7800       168
     4.8400       156
     4.9000       170
     4.9600       162
     5.0200       140
     5.0800       158
     5.1400       144
     5.2000       160
     5.2600       164
     5.3200       152
     5.3800       170
     5.4400       164
     5.5000       174
     5.5600       168
     5.6200       150
     5.6800       184
     5.7400       164
     5.8000       148
     5.8600       138
     5.9200       130
     5.9800       168
     6.0400       162
     6.1000       138
     6.1600       150
     6.2200       152
     6.2800       164
     6.3400       140
     6.4000       126
     6.4600       148
     6.5200       112
     6.5800       162
     6.6400       128
     6.7000       132
     6.7600       130
     6.8200       112
     6.8800       114
     6.9400       136
     7.0000       130
     7.0600        88
     7.1200       128
     7.1800       130
     7.2400       108
     7.3000       116
     7.3600       130
     7.4200       124
     7.4800       124
     7.5400       126
     7.6000       110
     7.6600       102
     7.7200       104
     7.7800       120
     7.8400       116
     7.9000       106
     7.9600       110
     8.0200       114
     8.0800       100
     8.1400       118
     8.2000       104
     8.2600       112
     8.3200       120
     8.3800       132
     8.4400       114
     8.5000       112
     8.5600       106
     8.6200       116
     8.6800       108
     8.7400       106
     8.8000        98
     8.8600       100
     8.9200       124
     8.9800        98
     9.0400        96
     9.1000       118
     9.1600       126
     9.2200       112
     9.2800       114
     9.3400       116
     9.4000       114
     9.4600       106
     9.5200        92
     9.5800       104
     9.6400       122
     9.7000       102
     9.7600       110
     9.8200       112
     9.8800       104
     9.9400       130
    10.0000       106
    10.0600       108
    10.1200       112
    10.1800        94
    10.2400       104
    10.3000       116
    10.3600        86
    10.4200        92
    10.4800        82
    10.5400       108
    10.6000       108
    10.6600        98
    10.7200        98
    10.7800        92
    10.8400        94
    10.9000        94
    10.9600        96
    11.0200        96
    11.0800       114
    11.1400        84
    11.2000        92
    11.2600        84
    11.3200        88
    11.3800       104
    11.4400        78
    11.5000        80
    11.5600       102
    11.6200        90
    11.6800        88
    11.7400        80
    11.8000        66
    11.8600       104
    11.9200        68
    11.9800        68
    12.0400        74
    12.1000        92
    12.1600        86
    12.2200        68
    12.2800        78
    12.3400        74
    12.4000        80
    12.4600        84
    12.5200        86
    12.5800        80
    12.6400        72
    12.7000        76
    12.7600        76
    12.8200        64
    12.8800        70
    12.9400        88
    13.0000        72
    13.0600        68
    13.1200        72
    13.1800        70
    13.2400        78
    13.3000        82
    13.3600        76
    13.4200        86
    13.4800        88
    13.5400        68
    13.6000        70
    13.6600        90
    13.7200       120
    13.7800       106
    13.8400       110
    13.9000       114
    13.9600       142
    14.0200       136
    14.0800       146
    14.1400       114
    14.2000        80
    14.2600       106
    14.3200        72
    14.3800        84
    14.4400        86
    14.5000        78
    14.5600        68
    14.6200        94
    14.6800        80
    14.7400        76
    14.8000        94
    14.8600        76
    14.9200        78
    14.9800        66
    15.0400        70
    15.1000        80
    15.1600        68
    15.2200        64
    15.2800        56
    15.3400        80
    15.4000        72
    15.4600        86
    15.5200        56
    15.5800        60
    15.6400        80
    15.7000        60
    15.7600        62
    15.8200        70
    15.8800        56
    15.9400        56
    16.0000        62
    16.0600        62
    16.1200        68
    16.1800        70
    16.2400        64
    16.3000        50
    16.3600        72
    16.4200        64
    16.4800        70
    16.5400        62
    16.6000        70
    16.6600        58
    16.7200        52
    16.7800        70
    16.8400        74
    16.9000        62
    16.9600        62
    17.0200        60
    17.0800        56
    17.1400        56
    17.2000        52
    17.2600        70
    17.3200        74
    17.3800        64
    17.4400        66
    17.5000        68
    17.5600        62
    17.6200        74
    17.6800        84
    17.7400        72
    17.8000        90
    17.8600        70
    17.9200        64
    17.9800        80
    18.0400        62
    18.1000        62
    18.1600        60
    18.2200        62
    18.2800        66
    18.3400        70
    18.4000        48
    18.4600        52
    18.5200        52
    18.5800        70
    18.6400        58
    18.7000        60
    18.7600        60
    18.8200        54
    18.8800        68
    18.9400        72
    19.0000        52
    19.0600        48
    19.1200        58
    19.1800        64
    19.2400        68
    19.3000        52
    19.3600        66
    19.4200        58
    19.4800        56
    19.5400        60
    19.6000        58
    19.6600        58
    19.7200        56
    19.7800        50
    19.8400        50
    19.9000        72
    19.9600        52
    20.0200        62
    20.0800        58
    20.1400        70
    20.2000        56
    20.2600        74
    20.3200        78
    20.3800        68
    20.4400        94
    20.5000        92
    20.5600       104
    20.6200        98
    20.6800       120
    20.7400       126
    20.8000       142
    20.8600       148
    20.9200       142
    20.9800       132
    21.0400       158
    21.1000       144
    21.1600       140
    21.2200       120
    21.2800       148
    21.3400       106
    21.4000       138
    21.4600       104
    21.5200        90
    21.5800        56
    21.6400        72
    21.7000        82
    21.7600        56
    21.8200        76
    21.8800        68
    21.9400        66
    22.0000        50
    22.0600        60
    22.1200        60
    22.1800        54
    22.2400        50
    22.3000        52
    22.3600        46
    22.4200        44
    22.4800        52
    22.5400        50
    22.6000        58
    22.6600        36
    22.7200        38
    22.7800        50
    22.8400        52
    22.9000        54
    22.9600        66
    23.0200        38
    23.0800        62
    23.1400        54
    23.2000        48
    23.2600        44
    23.3200        54
    23.3800        50
    23.4400        42
    23.5000        44
    23.5600        54
    23.6200        48
    23.6800        54
    23.7400        48
    23.8000        54
    23.8600        46
    23.9200        54
    23.9800        48
    24.0400        52
    24.1000        46
    24.1600        46
    24.2200        48
    24.2800        50
    24.3400        50
    24.4000        52
    24.4600        46
    24.5200        46
    24.5800        48
    24.6400        48
    24.7000        46
    24.7600        54
    24.8200        50
    24.8800        46
    24.9400        46
    25.0000        42
    25.0600        52
    25.1200        44
    25.1800        52
    25.2400        50
    25.3000        52
    25.3600        36
    25.4200        42
    25.4800        40
    25.5400        54
    25.6000        60
    25.6600        46
    25.7200        48
    25.7800        52
    25.8400        40
    25.9000        64
    25.9600        60
    26.0200        62
    26.0800        64
    26.1400        76
    26.2000        58
    26.2600        54
    26.3200        74
    26.3800        68
    26.4400        56
    26.5000        64
    26.5600        72
    26.6200        88
    26.6800        92
    26.7400       114
    26.8000       110
    26.8600        90
    26.9200       124
    26.9800       104
    27.0400       102
    27.1000        86
    27.1600        94
    27.2200        76
    27.2800        64
    27.3400        70
    27.4000        66
    27.4600        44
    27.5200        56
    27.5800        30
    27.6400        48
    27.7000        46
    27.7600        40
    27.8200        38
    27.8800        60
    27.9400        44
    28.0000        54
    28.0600        56
    28.1200        30
    28.1800        36
    28.2400        34
    28.3000        40
    28.3600        48
    28.4200        52
    28.4800        32
    28.5400        54
    28.6000        32
    28.6600        40
    28.7200        32
    28.7800        32
    28.8400        52
    28.9000        42
    28.9600        28
    29.0200        42
    29.0800        36
    29.1400        34
    29.2000        42
    29.2600        44
    29.3200        46
    29.3800        42
    29.4400        40
    29.5000        34
    29.5600        46
    29.6200        38
    29.6800        32
    29.7400        46
    29.8000        34
    29.8600        52
    29.9200        32
    29.9800        38
    30.0400        48
    30.1000        46
    30.1600        50
    30.2200        38
    30.2800        46
    30.3400        40
    30.4000        30
    30.4600        40
    30.5200        36
    30.5800        32
    30.6400        30
    30.7000        48
    30.7600        44
    30.8200        36
    30.8800        34
    30.9400        48
    31.0000        52
    31.0600        36
    31.1200        42
    31.1800        46
    31.2400        32
    31.3000        32
    31.3600        38
    31.4200        40
    31.4800        46
    31.5400        38
    31.6000        46
    31.6600        40
    31.7200        36
    31.7800        38
    31.8400        34
    31.9000        48
    31.9600        42
    32.0200        64
    32.0800        52
    32.1400        46
    32.2000        46
    32.2600        44
    32.3200        44
    32.3800        52
    32.4400        56
    32.5000        66
    32.5600        48
    32.6200        64
    32.6800        66
    32.7400        76
    32.8000       112
    32.8600       100
    32.9200       120
    32.9800       120
    33.0400       112
    33.1000       114
    33.1600       104
    33.2200        90
    33.2800        92
    33.3400        98
    33.4000        74
    33.4600        70
    33.5200        58
    33.5800        50
    33.6400        56
    33.7000        48
    33.7600        58
    33.8200        56
    33.8800        76
    33.9400        58
    34.0000        44
    34.0600        50
    34.1200        52
    34.1800        60
    34.2400        52
    34.3000        60
    34.3600        68
    34.4200        98
    34.4800        84
    34.5400       122
    34.6000       136
    34.6600       100
    34.7200        98
    34.7800        88
    34.8400        66
    34.9000        64
    34.9600        64
    35.0200        58
    35.0800        56
    35.1400        64
    35.2000        62
    35.2600        58
    35.3200        54
    35.3800        68
    35.4400        80
    35.5000        78
    35.5600        58
    35.6200        88
    35.6800        84
    35.7400        96
    35.8000       112
    35.8600       112
    35.9200       138
    35.9800       154
    36.0400       162
    36.1000       166
    36.1600       192
    36.2200       220
    36.2800       206
    36.3400       214
    36.4000       234
    36.4600       230
    36.5200       224
    36.5800       206
    36.6400       210
    36.7000       148
    36.7600       120
    36.8200       110
    36.8800        98
    36.9400        80
    37.0000        76
    37.0600        72
    37.1200        84
    37.1800        72
    37.2400        60
    37.3000        54
    37.3600        54
    37.4200        56
    37.4800        60
    37.5400        50
    37.6000        44
    37.6600        52
    37.7200        48
    37.7800        64
    37.8400        58
    37.9000        48
    37.9600        62
    38.0200        70
    38.0800        54
    38.1400        54
    38.2000        58
    38.2600        42
    38.3200        42
    38.3800        46
    38.4400        34
    38.5000        60
    38.5600        36
    38.6200        38
    38.6800        42
    38.7400        50
    38.8000        42
    38.8600        58
    38.9200        44
    38.9800        40
    39.0400        42
    39.1000        40
    39.1600        48
    39.2200        38
    39.2800        50
    39.3400        42
    39.4000        58
    39.4600        60
    39.5200        52
    39.5800        52
    39.6400        66
    39.7000        68
    39.7600        70
    39.8200        62
    39.8800        82
    39.9400        66
    40.0000        68
    40.0600        54
    40.1200        62
    40.1800        52
    40.2400        56
    40.3000        56
    40.3600        48
    40.4200        42
    40.4800        62
    40.5400        58
    40.6000        54
    40.6600        44
    40.7200        66
    40.7800        64
    40.8400        56
    40.9000        68
    40.9600        76
    41.0200        70
    41.0800        80
    41.1400        68
    41.2000        60
    41.2600        60
    41.3200        54
    41.3800        62
    41.4400        42
    41.5000        50
    41.5600        42
    41.6200        42
    41.6800        54
    41.7400        42
    41.8000        42
    41.8600        46
    41.9200        40
    41.9800        40
    42.0400        38
    42.1000        32
    42.1600        24
    42.2200        38
    42.2800        40
    42.3400        34
    42.4000        28
    42.4600        36
    42.5200        36
    42.5800        24
    42.6400        38
    42.7000        30
    42.7600        32
    42.8200        42
    42.8800        36
    42.9400        36
    43.0000        34
    43.0600        54
    43.1200        44
    43.1800        48
    43.2400        42
    43.3000        56
    43.3600        44
    43.4200        44
    43.4800        36
    43.5400        32
    43.6000        44
    43.6600        34
    43.7200        28
    43.7800        26
    43.8400        42
    43.9000        34
    43.9600        44
    44.0200        38
    44.0800        34
    44.1400        46
    44.2000        24
    44.2600        34
    44.3200        34
    44.3800        44
    44.4400        44
    44.5000        54
    44.5600        30
    44.6200        34
    44.6800        42
    44.7400        30
    44.8000        42
    44.8600        32
    44.9200        50
    44.9800        50
    45.0400        50
    45.1000        48
    45.1600        32
    45.2200        48
    45.2800        38
    45.3400        42
    45.4000        40
    45.4600        34
    45.5200        38
    45.5800        40
    45.6400        50
    45.7000        38
    45.7600        40
    45.8200        44
    45.8800        44
    45.9400        56
    46.0000        42
    46.0600        38
    46.1200        42
    46.1800        46
    46.2400        46
    46.3000        50
    46.3600        50
    46.4200        48
    46.4800        58
    46.5400        78
    46.6000        86
    46.6600        76
    46.7200       106
    46.7800        98
    46.8400        90
    46.9000        54
    46.9600        74
    47.0200        70
    47.0800        86
    47.1400        54
    47.2000        78
    47.2600        60
    47.3200        46
    47.3800        52
    47.4400        58
    47.5000        38
    47.5600        48
    47.6200        42
    47.6800        38
    47.7400        36
    47.8000        38
    47.8600        36
    47.9200        44
    47.9800        40
    48.0400        24
    48.1000        32
    48.1600        46
    48.2200        40
    48.2800        34
    48.3400        34
    48.4000        38
    48.4600        36
    48.5200        32
    48.5800        32
    48.6400        40
    48.7000        50
    48.7600        38
    48.8200        36
    48.8800        40
    48.9400        40
    49.0000        54
    49.0600        32
    49.1200        42
    49.1800        48
    49.2400        46
    49.3000        44
    49.3600        30
    49.4200        42
    49.4800        54
    49.5400        34
    49.6000        34
    49.6600        40
    49.7200        40
    49.7800        34
    49.8400        42
    49.9000        48
    49.9600        42
    50.0200        40
    50.0800        46
    50.1400        48
    50.2000        52
    50.2600        52
    50.3200        46
    50.3800        66
    50.4400        52
    50.5000        42
    50.5600        66
    50.6200        46
    50.6800        42
    50.7400        44
    50.8000        36
    50.8600        44
    50.9200        46
    50.9800        34
    51.0400        46
    51.1000        30
    51.1600        50
    51.2200        48
    51.2800        38
    51.3400        48
    51.4000        26
    51.4600        38
    51.5200        34
    51.5800        36
    51.6400        28
    51.7000        34
    51.7600        46
    51.8200        38
    51.8800        36
    51.9400        38
    52.0000        56
    52.0600        48
    52.1200        38
    52.1800        48
    52.2400        62
    52.3000        68
    52.3600        46
    52.4200        44
    52.4800        80
    52.5400        82
    52.6000        78
    52.6600        84
    52.7200        98
    52.7800       100
    52.8400       100
    52.9000       124
    52.9600        72
    53.0200       110
    53.0800        98
    53.1400        90
    53.2000        94
    53.2600        74
    53.3200        70
    53.3800        70
    53.4400        58
    53.5000        58
    53.5600        66
    53.6200        58
    53.6800        54
    53.7400        56
    53.8000        58
    53.8600        62
    53.9200        54
    53.9800        52
    54.0400        64
    54.1000        48
    54.1600        54
    54.2200        46
    54.2800        56
    54.3400        40
    54.4000        52
    54.4600        40
    54.5200        42
    54.5800        42
    54.6400        44
    54.7000        36
    54.7600        48
    54.8200        38
    54.8800        32
    54.9400        40
    55.0000        32
    55.0600        28
    55.1200        44
    55.1800        48
    55.2400        42
    55.3000        48
    55.3600        42
    55.4200        36
    55.4800        42
    55.5400        46
    55.6000        42
    55.6600        34
    55.7200        32
    55.7800        40
    55.8400        32
    55.9000        42
    55.9600        44
    56.0200        40
    56.0800        38
    56.1400        42
    56.2000        46
    56.2600        36
    56.3200        38
    56.3800        48
    56.4400        42
    56.5000        50
    56.5600        36
    56.6200        38
    56.6800        48
    56.7400        36
    56.8000        46
    56.8600        32
    56.9200        38
    56.9800        46
    57.0400        56
    57.1000        56
    57.1600        44
    57.2200        42
    57.2800        38
    57.3400        38
    57.4000        64
    57.4600        42
    57.5200        30
    57.5800        42
    57.6400        46
    57.7000        38
    57.7600        46
    57.8200        38
    57.8800        40
    57.9400        46
    58.0000        44
    58.0600        44
    58.1200        32
    58.1800        32
    58.2400        44
    58.3000        40
    58.3600        50
    58.4200        52
    58.4800        58
    58.5400        50
    58.6000        64
    58.6600        68
    58.7200        94
    58.7800        72
    58.8400       108
    58.9000        98
    58.9600        84
    59.0200        94
    59.0800        70
    59.1400        56
    59.2000        62
    59.2600        52
    59.3200        44
    59.3800        54
    59.4400        50
    59.5000        50
    59.5600        46
    59.6200        48
    59.6800        42
    59.7400        50
    59.8000        54
    59.8600        50
    59.9200        44
    59.9800        54
    60.0400        56
    60.1000        60
    60.1600        72
    60.2200        50
    60.2800        44
    60.3400        66
    60.4000        56
    60.4600        52
    60.5200        60
    60.5800        56
    60.6400        54
    60.7000        64
    60.7600        56
    60.8200        50
    60.8800        74
    60.9400        64
    61.0000        62
    61.0600        94
    61.1200        94
    61.1800        66
    61.2400        84
    61.3000        70
    61.3600        46
    61.4200        52
    61.4800        56
    61.5400        42
    61.6000        48
    61.6600        46
    61.7200        48
    61.7800        38
    61.8400        40
    61.9000        48
    61.9600        34
    62.0200        38
    62.0800        40
    62.1400        34
    62.2000        44
    62.2600        28
    62.3200        36
    62.3800        40
    62.4400        38
    62.5000        38
    62.5600        52
    62.6200        42
    62.6800        48
    62.7400        38
    62.8000        48
    62.8600        50
    62.9200        48
    62.9800        54
    63.0400        50
    63.1000        46
    63.1600        48
    63.2200        36
    63.2800        40
    63.3400        40
    63.4000        42
    63.4600        58
    63.5200        42
    63.5800        68
    63.6400        66
    63.7000        66
    63.7600        58
    63.8200        64
    63.8800        68
    63.9400        64
    64.0000        58
    64.0600        68
    64.1200        54
    64.1800        42
    64.2400        44
    64.3000        40
    64.3600        42
    64.4200        42
    64.4800        32
    64.5400        50
    64.6000        48
    64.6600        40
    64.7200        40
    64.7800        50
    64.8400        52
    64.9000        42
    64.9600        46
    65.0000        42