File: sl1/usgs/library06/DESCRIPT/new_xrd_results_to_be_added/Rhonda_Driscoll_xrd_runs/LC-5-250C-30hrs.txt
/////////////////////////////////////////////////////////////////////////////////
/// Profile Data Ascii Dump (XRD)                                             ///
/////////////////////////////////////////////////////////////////////////////////

  Group     : Swayze
  Data      : LC-5
  File Name : LC-5.RAW

# Profile Datafile
          comment             = Alunite-250C-30hrs
          date & time         = 08-04-01 07:18:54

# Measurement Condition
    X-ray tube
          target              = Cu
          voltage             = 40.0 (kV)
          current             = 30.0 (mA)
    Slits
          divergence slit     = 2.00000 (deg)
          scatter slit        = 2.00000 (deg)
          receiving slit      = 0.15000 (mm)
    Scanning
          drive axis          = Theta-2Theta
          scan range          =    4.000 -   65.000
          scan mode           = Continuous Scan
          scan speed          =   2.0000 (deg/min)
          sampling pitch      =   0.0200 (deg)
          preset time         =   0.60 (sec)

# Data      [ Total No. = 3051 ]
  <2Theta>   <   I   >
     4.0000       208
     4.0600       212
     4.1200       198
     4.1800       218
     4.2400       202
     4.3000       190
     4.3600       176
     4.4200       172
     4.4800       168
     4.5400       166
     4.6000       176
     4.6600       152
     4.7200       184
     4.7800       166
     4.8400       164
     4.9000       154
     4.9600       176
     5.0200       164
     5.0800       172
     5.1400       162
     5.2000       180
     5.2600       166
     5.3200       168
     5.3800       178
     5.4400       154
     5.5000       180
     5.5600       178
     5.6200       182
     5.6800       174
     5.7400       186
     5.8000       148
     5.8600       162
     5.9200       176
     5.9800       174
     6.0400       146
     6.1000       156
     6.1600       138
     6.2200       116
     6.2800       148
     6.3400       130
     6.4000       130
     6.4600       138
     6.5200       130
     6.5800       146
     6.6400       160
     6.7000       150
     6.7600       144
     6.8200       164
     6.8800       124
     6.9400       118
     7.0000       122
     7.0600       138
     7.1200       122
     7.1800       120
     7.2400       106
     7.3000       136
     7.3600       130
     7.4200       140
     7.4800       114
     7.5400       132
     7.6000       116
     7.6600       138
     7.7200       134
     7.7800       120
     7.8400       116
     7.9000       102
     7.9600       116
     8.0200        88
     8.0800       116
     8.1400        94
     8.2000       102
     8.2600       134
     8.3200       132
     8.3800       116
     8.4400       114
     8.5000       126
     8.5600       128
     8.6200       120
     8.6800       116
     8.7400       122
     8.8000       128
     8.8600       128
     8.9200       112
     8.9800       104
     9.0400       128
     9.1000       100
     9.1600       102
     9.2200       116
     9.2800       126
     9.3400       128
     9.4000       108
     9.4600       106
     9.5200       126
     9.5800        86
     9.6400       108
     9.7000       102
     9.7600       104
     9.8200       104
     9.8800       126
     9.9400       112
    10.0000        96
    10.0600       108
    10.1200        90
    10.1800       100
    10.2400       114
    10.3000       108
    10.3600       114
    10.4200        96
    10.4800       112
    10.5400       122
    10.6000       112
    10.6600        92
    10.7200        98
    10.7800       104
    10.8400        88
    10.9000        76
    10.9600        82
    11.0200        96
    11.0800        94
    11.1400        96
    11.2000       106
    11.2600        98
    11.3200       118
    11.3800        86
    11.4400        86
    11.5000        76
    11.5600        92
    11.6200        84
    11.6800        90
    11.7400        76
    11.8000        84
    11.8600        76
    11.9200        78
    11.9800        84
    12.0400       104
    12.1000        84
    12.1600       102
    12.2200        74
    12.2800        84
    12.3400       102
    12.4000       104
    12.4600        78
    12.5200        86
    12.5800        60
    12.6400        84
    12.7000       100
    12.7600        78
    12.8200        82
    12.8800        64
    12.9400        92
    13.0000        86
    13.0600        82
    13.1200        72
    13.1800        76
    13.2400        74
    13.3000        68
    13.3600        78
    13.4200        78
    13.4800        68
    13.5400        80
    13.6000        82
    13.6600        56
    13.7200        74
    13.7800        86
    13.8400        76
    13.9000        68
    13.9600        56
    14.0200        48
    14.0800        74
    14.1400        68
    14.2000        72
    14.2600        66
    14.3200        66
    14.3800        64
    14.4400        66
    14.5000        80
    14.5600        72
    14.6200        94
    14.6800       122
    14.7400        86
    14.8000       100
    14.8600        72
    14.9200        96
    14.9800        82
    15.0400        86
    15.1000        74
    15.1600        74
    15.2200        98
    15.2800       108
    15.3400       100
    15.4000       142
    15.4600       196
    15.5200       158
    15.5800       102
    15.6400        74
    15.7000        70
    15.7600        58
    15.8200        54
    15.8800        58
    15.9400        52
    16.0000        60
    16.0600        66
    16.1200        58
    16.1800        52
    16.2400        68
    16.3000        60
    16.3600        66
    16.4200        50
    16.4800        64
    16.5400        62
    16.6000        74
    16.6600        68
    16.7200        64
    16.7800        54
    16.8400        70
    16.9000        62
    16.9600        72
    17.0200        54
    17.0800        60
    17.1400        48
    17.2000        70
    17.2600        58
    17.3200        72
    17.3800        88
    17.4400        74
    17.5000       110
    17.5600        86
    17.6200       126
    17.6800       166
    17.7400       226
    17.8000       418
    17.8600       518
    17.9200       412
    17.9800       164
    18.0400        96
    18.1000        84
    18.1600        72
    18.2200        72
    18.2800        68
    18.3400        64
    18.4000        62
    18.4600        64
    18.5200        76
    18.5800        72
    18.6400        54
    18.7000        60
    18.7600        56
    18.8200        46
    18.8800        64
    18.9400        68
    19.0000        52
    19.0600        58
    19.1200        72
    19.1800        70
    19.2400        74
    19.3000        72
    19.3600        58
    19.4200        62
    19.4800        68
    19.5400        82
    19.6000        64
    19.6600        64
    19.7200        74
    19.7800        78
    19.8400        72
    19.9000        64
    19.9600        78
    20.0200        66
    20.0800        76
    20.1400        70
    20.2000        76
    20.2600        76
    20.3200        94
    20.3800        64
    20.4400        72
    20.5000        72
    20.5600        66
    20.6200        82
    20.6800        64
    20.7400        90
    20.8000        74
    20.8600        90
    20.9200        78
    20.9800        78
    21.0400        86
    21.1000        68
    21.1600        54
    21.2200        64
    21.2800        82
    21.3400        54
    21.4000        64
    21.4600        64
    21.5200        46
    21.5800        66
    21.6400        60
    21.7000        60
    21.7600        66
    21.8200        86
    21.8800        78
    21.9400        74
    22.0000        68
    22.0600        54
    22.1200        70
    22.1800        80
    22.2400        78
    22.3000        58
    22.3600        82
    22.4200        68
    22.4800        56
    22.5400        76
    22.6000        74
    22.6600        72
    22.7200        76
    22.7800        70
    22.8400        72
    22.9000        58
    22.9600        70
    23.0200        66
    23.0800        52
    23.1400        70
    23.2000        80
    23.2600        56
    23.3200        78
    23.3800        64
    23.4400        54
    23.5000        64
    23.5600        72
    23.6200        76
    23.6800        62
    23.7400        62
    23.8000        64
    23.8600        58
    23.9200        72
    23.9800        68
    24.0400        64
    24.1000        50
    24.1600        62
    24.2200        66
    24.2800        72
    24.3400        62
    24.4000        50
    24.4600        64
    24.5200        66
    24.5800        70
    24.6400        74
    24.7000        80
    24.7600        70
    24.8200        74
    24.8800        70
    24.9400        70
    25.0000        70
    25.0600        70
    25.1200        88
    25.1800       102
    25.2400       110
    25.3000       186
    25.3600       292
    25.4200       412
    25.4800       342
    25.5400       186
    25.6000       146
    25.6600        92
    25.7200        84
    25.7800        78
    25.8400        72
    25.9000        62
    25.9600        74
    26.0200        50
    26.0800        46
    26.1400        60
    26.2000        58
    26.2600        80
    26.3200        60
    26.3800        70
    26.4400        68
    26.5000        86
    26.5600       154
    26.6200       142
    26.6800        90
    26.7400        80
    26.8000        60
    26.8600        62
    26.9200        68
    26.9800        68
    27.0400        60
    27.1000        58
    27.1600        62
    27.2200        58
    27.2800        78
    27.3400        94
    27.4000       102
    27.4600        76
    27.5200        62
    27.5800        56
    27.6400        64
    27.7000        44
    27.7600        58
    27.8200        62
    27.8800        60
    27.9400        76
    28.0000        74
    28.0600        46
    28.1200        62
    28.1800        58
    28.2400        50
    28.3000        48
    28.3600        64
    28.4200        60
    28.4800        62
    28.5400        50
    28.6000        50
    28.6600        66
    28.7200        44
    28.7800        54
    28.8400        58
    28.9000        56
    28.9600        44
    29.0200        72
    29.0800        64
    29.1400        78
    29.2000        64
    29.2600        80
    29.3200        66
    29.3800       116
    29.4400       128
    29.5000       152
    29.5600       182
    29.6200       272
    29.6800       392
    29.7400       630
    29.8000      1092
    29.8600      1542
    29.9200      1254
    29.9800       718
    30.0400       282
    30.1000       156
    30.1600       130
    30.2200        90
    30.2800        72
    30.3400        58
    30.4000        50
    30.4600        56
    30.5200        62
    30.5800        66
    30.6400        56
    30.7000        48
    30.7600        58
    30.8200        60
    30.8800        82
    30.9400        82
    31.0000       110
    31.0600       136
    31.1200       140
    31.1800       108
    31.2400        84
    31.3000        88
    31.3600        74
    31.4200        78
    31.4800       108
    31.5400       202
    31.6000       308
    31.6600       460
    31.7200       292
    31.7800       160
    31.8400       118
    31.9000        84
    31.9600        62
    32.0200        52
    32.0800        48
    32.1400        46
    32.2000        44
    32.2600        50
    32.3200        52
    32.3800        56
    32.4400        34
    32.5000        36
    32.5600        40
    32.6200        62
    32.6800        44
    32.7400        38
    32.8000        42
    32.8600        52
    32.9200        40
    32.9800        50
    33.0400        38
    33.1000        34
    33.1600        46
    33.2200        38
    33.2800        46
    33.3400        52
    33.4000        42
    33.4600        42
    33.5200        42
    33.5800        36
    33.6400        48
    33.7000        40
    33.7600        24
    33.8200        40
    33.8800        36
    33.9400        38
    34.0000        44
    34.0600        48
    34.1200        28
    34.1800        44
    34.2400        48
    34.3000        32
    34.3600        40
    34.4200        46
    34.4800        50
    34.5400        60
    34.6000        48
    34.6600        40
    34.7200        48
    34.7800        56
    34.8400        42
    34.9000        50
    34.9600        44
    35.0200        26
    35.0800        50
    35.1400        50
    35.2000        46
    35.2600        40
    35.3200        44
    35.3800        50
    35.4400        26
    35.5000        44
    35.5600        42
    35.6200        48
    35.6800        40
    35.7400        44
    35.8000        40
    35.8600        40
    35.9200        66
    35.9800        52
    36.0400        54
    36.1000        62
    36.1600        64
    36.2200        78
    36.2800        68
    36.3400        56
    36.4000        46
    36.4600        28
    36.5200        40
    36.5800        46
    36.6400        54
    36.7000        36
    36.7600        28
    36.8200        36
    36.8800        38
    36.9400        34
    37.0000        54
    37.0600        46
    37.1200        40
    37.1800        34
    37.2400        32
    37.3000        44
    37.3600        32
    37.4200        44
    37.4800        56
    37.5400        36
    37.6000        36
    37.6600        46
    37.7200        48
    37.7800        42
    37.8400        52
    37.9000        36
    37.9600        46
    38.0200        38
    38.0800        50
    38.1400        38
    38.2000        40
    38.2600        52
    38.3200        58
    38.3800        48
    38.4400        38
    38.5000        52
    38.5600        34
    38.6200        38
    38.6800        56
    38.7400        46
    38.8000        42
    38.8600        52
    38.9200        48
    38.9800        54
    39.0400        40
    39.1000        64
    39.1600        74
    39.2200        90
    39.2800       142
    39.3400       212
    39.4000       322
    39.4600       352
    39.5200       302
    39.5800       260
    39.6400       178
    39.7000       100
    39.7600        74
    39.8200        56
    39.8800        46
    39.9400        48
    40.0000        44
    40.0600        42
    40.1200        56
    40.1800        32
    40.2400        44
    40.3000        38
    40.3600        48
    40.4200        38
    40.4800        54
    40.5400        60
    40.6000        76
    40.6600       104
    40.7200        88
    40.7800       112
    40.8400        68
    40.9000        50
    40.9600        44
    41.0200        38
    41.0800        34
    41.1400        30
    41.2000        40
    41.2600        28
    41.3200        42
    41.3800        28
    41.4400        34
    41.5000        46
    41.5600        34
    41.6200        28
    41.6800        40
    41.7400        26
    41.8000        28
    41.8600        32
    41.9200        28
    41.9800        30
    42.0400        36
    42.1000        34
    42.1600        50
    42.2200        52
    42.2800        48
    42.3400        40
    42.4000        44
    42.4600        32
    42.5200        42
    42.5800        42
    42.6400        46
    42.7000        36
    42.7600        30
    42.8200        34
    42.8800        32
    42.9400        34
    43.0000        40
    43.0600        34
    43.1200        32
    43.1800        34
    43.2400        38
    43.3000        34
    43.3600        34
    43.4200        42
    43.4800        28
    43.5400        36
    43.6000        34
    43.6600        32
    43.7200        36
    43.7800        32
    43.8400        38
    43.9000        46
    43.9600        24
    44.0200        32
    44.0800        30
    44.1400        32
    44.2000        36
    44.2600        46
    44.3200        26
    44.3800        24
    44.4400        44
    44.5000        26
    44.5600        34
    44.6200        40
    44.6800        48
    44.7400        38
    44.8000        50
    44.8600        34
    44.9200        32
    44.9800        38
    45.0400        36
    45.1000        38
    45.1600        54
    45.2200        64
    45.2800        88
    45.3400       154
    45.4000       196
    45.4600       168
    45.5200       110
    45.5800        90
    45.6400        44
    45.7000        46
    45.7600        34
    45.8200        24
    45.8800        36
    45.9400        38
    46.0000        32
    46.0600        34
    46.1200        34
    46.1800        32
    46.2400        28
    46.3000        32
    46.3600        28
    46.4200        24
    46.4800        30
    46.5400        30
    46.6000        26
    46.6600        42
    46.7200        28
    46.7800        28
    46.8400        38
    46.9000        30
    46.9600        34
    47.0200        38
    47.0800        40
    47.1400        50
    47.2000        56
    47.2600        54
    47.3200        92
    47.3800        78
    47.4400       116
    47.5000       166
    47.5600       198
    47.6200       290
    47.6800       408
    47.7400       320
    47.8000       222
    47.8600       172
    47.9200        86
    47.9800        58
    48.0400        40
    48.1000        44
    48.1600        44
    48.2200        28
    48.2800        40
    48.3400        34
    48.4000        50
    48.4600        36
    48.5200        42
    48.5800        30
    48.6400        38
    48.7000        40
    48.7600        22
    48.8200        38
    48.8800        28
    48.9400        38
    49.0000        42
    49.0600        34
    49.1200        30
    49.1800        42
    49.2400        38
    49.3000        48
    49.3600        46
    49.4200        32
    49.4800        40
    49.5400        42
    49.6000        32
    49.6600        24
    49.7200        36
    49.7800        42
    49.8400        28
    49.9000        20
    49.9600        48
    50.0200        40
    50.0800        48
    50.1400        36
    50.2000        36
    50.2600        48
    50.3200        26
    50.3800        32
    50.4400        34
    50.5000        48
    50.5600        36
    50.6200        32
    50.6800        40
    50.7400        36
    50.8000        26
    50.8600        34
    50.9200        34
    50.9800        34
    51.0400        36
    51.1000        32
    51.1600        30
    51.2200        28
    51.2800        38
    51.3400        30
    51.4000        24
    51.4600        34
    51.5200        30
    51.5800        32
    51.6400        36
    51.7000        28
    51.7600        32
    51.8200        26
    51.8800        40
    51.9400        54
    52.0000        56
    52.0600        72
    52.1200       116
    52.1800       210
    52.2400       244
    52.3000       214
    52.3600       198
    52.4200       128
    52.4800        88
    52.5400        46
    52.6000        42
    52.6600        36
    52.7200        44
    52.7800        36
    52.8400        30
    52.9000        34
    52.9600        30
    53.0200        28
    53.0800        30
    53.1400        26
    53.2000        32
    53.2600        30
    53.3200        36
    53.3800        30
    53.4400        38
    53.5000        30
    53.5600        38
    53.6200        32
    53.6800        54
    53.7400        40
    53.8000        42
    53.8600        38
    53.9200        40
    53.9800        48
    54.0400        38
    54.1000        40
    54.1600        36
    54.2200        34
    54.2800        44
    54.3400        36
    54.4000        40
    54.4600        42
    54.5200        44
    54.5800        54
    54.6400        44
    54.7000        48
    54.7600        36
    54.8200        52
    54.8800        44
    54.9400        44
    55.0000        36
    55.0600        30
    55.1200        40
    55.1800        38
    55.2400        36
    55.3000        42
    55.3600        50
    55.4200        44
    55.4800        40
    55.5400        40
    55.6000        42
    55.6600        56
    55.7200        54
    55.7800        38
    55.8400        48
    55.9000        30
    55.9600        48
    56.0200        40
    56.0800        42
    56.1400        36
    56.2000        38
    56.2600        36
    56.3200        50
    56.3800        80
    56.4400        56
    56.5000        58
    56.5600        44
    56.6200        42
    56.6800        38
    56.7400        36
    56.8000        30
    56.8600        28
    56.9200        34
    56.9800        34
    57.0400        28
    57.1000        34
    57.1600        36
    57.2200        30
    57.2800        32
    57.3400        26
    57.4000        30
    57.4600        28
    57.5200        20
    57.5800        32
    57.6400        34
    57.7000        28
    57.7600        26
    57.8200        44
    57.8800        22
    57.9400        26
    58.0000        30
    58.0600        26
    58.1200        28
    58.1800        32
    58.2400        40
    58.3000        24
    58.3600        32
    58.4200        42
    58.4800        28
    58.5400        32
    58.6000        28
    58.6600        36
    58.7200        48
    58.7800        44
    58.8400        42
    58.9000        50
    58.9600        60
    59.0200        56
    59.0800        42
    59.1400        44
    59.2000        36
    59.2600        24
    59.3200        36
    59.3800        38
    59.4400        26
    59.5000        26
    59.5600        32
    59.6200        38
    59.6800        26
    59.7400        38
    59.8000        30
    59.8600        34
    59.9200        42
    59.9800        30
    60.0400        36
    60.1000        30
    60.1600        38
    60.2200        24
    60.2800        48
    60.3400        20
    60.4000        30
    60.4600        32
    60.5200        48
    60.5800        40
    60.6400        34
    60.7000        40
    60.7600        34
    60.8200        36
    60.8800        30
    60.9400        50
    61.0000        38
    61.0600        44
    61.1200        40
    61.1800        48
    61.2400        52
    61.3000        62
    61.3600        66
    61.4200        72
    61.4800        62
    61.5400        70
    61.6000        82
    61.6600        84
    61.7200        88
    61.7800       112
    61.8400       122
    61.9000       148
    61.9600       168
    62.0200       202
    62.0800       150
    62.1400       142
    62.2000        88
    62.2600       108
    62.3200        72
    62.3800        60
    62.4400        64
    62.5000        40
    62.5600        44
    62.6200        44
    62.6800        30
    62.7400        28
    62.8000        34
    62.8600        28
    62.9200        30
    62.9800        16
    63.0400        38
    63.1000        22
    63.1600        30
    63.2200        22
    63.2800        28
    63.3400        30
    63.4000        18
    63.4600        24
    63.5200        30
    63.5800        20
    63.6400        38
    63.7000        34
    63.7600        32
    63.8200        32
    63.8800        38
    63.9400        30
    64.0000        28
    64.0600        32
    64.1200        32
    64.1800        34
    64.2400        32
    64.3000        32
    64.3600        28
    64.4200        20
    64.4800        44
    64.5400        28
    64.6000        36
    64.6600        22
    64.7200        26
    64.7800        36
    64.8400        36
    64.9000        32
    64.9600        30
    65.0000        44