File: sl1/usgs/library06/DESCRIPT/new_xrd_results_to_be_added/Rhonda_Driscoll_xrd_runs/Lee-Plumlee-112-HI-ash.txt
/////////////////////////////////////////////////////////////////////////////////
/// Profile Data Ascii Dump (XRD)                                             ///
/////////////////////////////////////////////////////////////////////////////////

  Group     : Swayze
  Data      : LeePlumlee
  File Name : LeePlumlee.RAW

# Profile Datafile
          comment             = 112 HI ash
          date & time         = 08-04-09 08:53:11

# Measurement Condition
    X-ray tube
          target              = Cu
          voltage             = 40.0 (kV)
          current             = 30.0 (mA)
    Slits
          divergence slit     = 2.00000 (deg)
          scatter slit        = 2.00000 (deg)
          receiving slit      = 0.15000 (mm)
    Scanning
          drive axis          = Theta-2Theta
          scan range          =    4.000 -   65.000
          scan mode           = Continuous Scan
          scan speed          =   2.0000 (deg/min)
          sampling pitch      =   0.0200 (deg)
          preset time         =   0.60 (sec)

# Data      [ Total No. = 3051 ]
  <2Theta>   <   I   >
     4.0000       232
     4.0600       200
     4.1200       196
     4.1800       202
     4.2400       196
     4.3000       192
     4.3600       168
     4.4200       164
     4.4800       186
     4.5400       186
     4.6000       202
     4.6600       180
     4.7200       170
     4.7800       198
     4.8400       168
     4.9000       174
     4.9600       192
     5.0200       168
     5.0800       194
     5.1400       172
     5.2000       162
     5.2600       154
     5.3200       188
     5.3800       176
     5.4400       206
     5.5000       184
     5.5600       172
     5.6200       180
     5.6800       170
     5.7400       158
     5.8000       186
     5.8600       150
     5.9200       156
     5.9800       142
     6.0400       178
     6.1000       160
     6.1600       152
     6.2200       178
     6.2800       166
     6.3400       158
     6.4000       156
     6.4600       146
     6.5200       154
     6.5800       138
     6.6400       144
     6.7000       142
     6.7600       144
     6.8200       122
     6.8800       152
     6.9400       136
     7.0000       124
     7.0600       128
     7.1200       140
     7.1800       124
     7.2400       138
     7.3000       134
     7.3600       136
     7.4200       126
     7.4800       118
     7.5400       120
     7.6000       130
     7.6600       116
     7.7200       136
     7.7800       130
     7.8400       120
     7.9000        94
     7.9600       120
     8.0200       130
     8.0800       142
     8.1400       126
     8.2000       116
     8.2600       146
     8.3200       136
     8.3800       108
     8.4400       140
     8.5000       118
     8.5600       128
     8.6200       138
     8.6800       112
     8.7400       140
     8.8000       120
     8.8600       112
     8.9200       128
     8.9800       104
     9.0400       118
     9.1000       128
     9.1600       118
     9.2200       132
     9.2800       130
     9.3400       114
     9.4000       120
     9.4600       122
     9.5200       128
     9.5800       144
     9.6400       126
     9.7000       114
     9.7600       134
     9.8200       100
     9.8800        98
     9.9400       122
    10.0000       118
    10.0600       112
    10.1200       128
    10.1800       114
    10.2400       128
    10.3000        98
    10.3600       108
    10.4200       106
    10.4800       124
    10.5400       116
    10.6000       112
    10.6600       114
    10.7200       118
    10.7800       110
    10.8400        88
    10.9000       102
    10.9600       104
    11.0200       102
    11.0800       108
    11.1400       110
    11.2000       106
    11.2600       106
    11.3200       112
    11.3800       114
    11.4400       124
    11.5000       142
    11.5600       170
    11.6200       148
    11.6800        84
    11.7400        94
    11.8000       118
    11.8600       102
    11.9200       100
    11.9800        80
    12.0400       112
    12.1000        84
    12.1600       108
    12.2200       108
    12.2800        82
    12.3400       102
    12.4000        92
    12.4600       100
    12.5200        92
    12.5800        96
    12.6400        92
    12.7000        86
    12.7600        88
    12.8200        88
    12.8800        94
    12.9400        92
    13.0000        88
    13.0600        96
    13.1200        82
    13.1800        74
    13.2400        98
    13.3000        78
    13.3600        86
    13.4200        76
    13.4800       102
    13.5400        82
    13.6000       104
    13.6600       108
    13.7200       102
    13.7800        92
    13.8400        92
    13.9000        90
    13.9600        84
    14.0200        98
    14.0800        94
    14.1400        90
    14.2000        88
    14.2600       102
    14.3200       102
    14.3800       118
    14.4400        96
    14.5000        96
    14.5600       106
    14.6200       100
    14.6800        98
    14.7400        82
    14.8000        70
    14.8600        82
    14.9200        76
    14.9800        78
    15.0400        82
    15.1000        82
    15.1600        82
    15.2200        68
    15.2800       104
    15.3400        84
    15.4000        90
    15.4600       100
    15.5200        80
    15.5800        88
    15.6400        82
    15.7000       106
    15.7600        94
    15.8200        90
    15.8800        84
    15.9400       108
    16.0000        86
    16.0600        94
    16.1200        92
    16.1800       104
    16.2400        94
    16.3000        74
    16.3600        86
    16.4200        96
    16.4800       114
    16.5400       102
    16.6000        74
    16.6600        82
    16.7200       110
    16.7800        86
    16.8400        80
    16.9000        98
    16.9600        96
    17.0200        80
    17.0800        88
    17.1400        76
    17.2000       118
    17.2600       102
    17.3200       102
    17.3800       100
    17.4400       106
    17.5000        98
    17.5600        90
    17.6200        88
    17.6800       106
    17.7400       118
    17.8000       122
    17.8600        96
    17.9200        86
    17.9800       114
    18.0400       106
    18.1000       110
    18.1600       106
    18.2200       104
    18.2800       128
    18.3400       114
    18.4000        92
    18.4600       108
    18.5200       126
    18.5800       126
    18.6400       116
    18.7000        98
    18.7600       106
    18.8200       118
    18.8800       114
    18.9400       104
    19.0000       120
    19.0600       120
    19.1200       102
    19.1800        90
    19.2400       112
    19.3000       138
    19.3600       134
    19.4200       122
    19.4800       130
    19.5400       128
    19.6000       104
    19.6600       138
    19.7200       140
    19.7800       140
    19.8400       120
    19.9000       116
    19.9600       122
    20.0200       132
    20.0800       122
    20.1400       128
    20.2000       136
    20.2600       162
    20.3200       136
    20.3800       140
    20.4400       158
    20.5000       144
    20.5600       184
    20.6200       184
    20.6800       176
    20.7400       162
    20.8000       162
    20.8600       132
    20.9200       146
    20.9800       164
    21.0400       160
    21.1000       148
    21.1600       166
    21.2200       160
    21.2800       160
    21.3400       176
    21.4000       158
    21.4600       170
    21.5200       154
    21.5800       184
    21.6400       200
    21.7000       200
    21.7600       226
    21.8200       234
    21.8800       236
    21.9400       150
    22.0000       168
    22.0600       148
    22.1200       174
    22.1800       134
    22.2400       162
    22.3000       156
    22.3600       132
    22.4200       156
    22.4800       170
    22.5400       144
    22.6000       150
    22.6600       150
    22.7200       166
    22.7800       174
    22.8400       188
    22.9000       168
    22.9600       172
    23.0200       150
    23.0800       188
    23.1400       172
    23.2000       164
    23.2600       168
    23.3200       168
    23.3800       150
    23.4400       188
    23.5000       156
    23.5600       166
    23.6200       164
    23.6800       118
    23.7400       152
    23.8000       134
    23.8600       134
    23.9200       140
    23.9800       138
    24.0400       148
    24.1000       130
    24.1600       142
    24.2200       154
    24.2800       166
    24.3400       160
    24.4000       150
    24.4600       152
    24.5200       158
    24.5800       132
    24.6400       162
    24.7000       162
    24.7600       166
    24.8200       182
    24.8800       210
    24.9400       202
    25.0000       276
    25.0600       310
    25.1200       406
    25.1800       614
    25.2400       908
    25.3000      1368
    25.3600      1580
    25.4200      1114
    25.4800       516
    25.5400       330
    25.6000       228
    25.6600       206
    25.7200       186
    25.7800       166
    25.8400       154
    25.9000       148
    25.9600       166
    26.0200       158
    26.0800       108
    26.1400       158
    26.2000       122
    26.2600       112
    26.3200       130
    26.3800       140
    26.4400       132
    26.5000       110
    26.5600        96
    26.6200       126
    26.6800       144
    26.7400        90
    26.8000       114
    26.8600       118
    26.9200       100
    26.9800       114
    27.0400       128
    27.1000       124
    27.1600       116
    27.2200       112
    27.2800       116
    27.3400       114
    27.4000       132
    27.4600       134
    27.5200       158
    27.5800       160
    27.6400       166
    27.7000       156
    27.7600       148
    27.8200       130
    27.8800       124
    27.9400       156
    28.0000       116
    28.0600       124
    28.1200        88
    28.1800       112
    28.2400        96
    28.3000       122
    28.3600       110
    28.4200       122
    28.4800       110
    28.5400       108
    28.6000       106
    28.6600       100
    28.7200        94
    28.7800       114
    28.8400        86
    28.9000       130
    28.9600       120
    29.0200       146
    29.0800       132
    29.1400       120
    29.2000        94
    29.2600        98
    29.3200        80
    29.3800       100
    29.4400       114
    29.5000       116
    29.5600       144
    29.6200       136
    29.6800       124
    29.7400       138
    29.8000       106
    29.8600       116
    29.9200       112
    29.9800        88
    30.0400        98
    30.1000        98
    30.1600        94
    30.2200       126
    30.2800       110
    30.3400       106
    30.4000       122
    30.4600       110
    30.5200       106
    30.5800        98
    30.6400       122
    30.7000        96
    30.7600       116
    30.8200       106
    30.8800       112
    30.9400       104
    31.0000       154
    31.0600       168
    31.1200       202
    31.1800       236
    31.2400       312
    31.3000       308
    31.3600       202
    31.4200       148
    31.4800       110
    31.5400       118
    31.6000        78
    31.6600       102
    31.7200        98
    31.7800       134
    31.8400       100
    31.9000       122
    31.9600       106
    32.0200        88
    32.0800       108
    32.1400        74
    32.2000        72
    32.2600        80
    32.3200        82
    32.3800        82
    32.4400        70
    32.5000        52
    32.5600        78
    32.6200        60
    32.6800        76
    32.7400        72
    32.8000        72
    32.8600        56
    32.9200        74
    32.9800        62
    33.0400        54
    33.1000        68
    33.1600        92
    33.2200        82
    33.2800        84
    33.3400        84
    33.4000        82
    33.4600        74
    33.5200        62
    33.5800        66
    33.6400        70
    33.7000        80
    33.7600        66
    33.8200        60
    33.8800        54
    33.9400        58
    34.0000        52
    34.0600        68
    34.1200        76
    34.1800        66
    34.2400        46
    34.3000        56
    34.3600        80
    34.4200        70
    34.4800        62
    34.5400        82
    34.6000        62
    34.6600        62
    34.7200        72
    34.7800        74
    34.8400        76
    34.9000        92
    34.9600        70
    35.0200        70
    35.0800        72
    35.1400        60
    35.2000        66
    35.2600        66
    35.3200        72
    35.3800        70
    35.4400        80
    35.5000        86
    35.5600        82
    35.6200        86
    35.6800        94
    35.7400        78
    35.8000        84
    35.8600       110
    35.9200       108
    35.9800       100
    36.0400       100
    36.1000       122
    36.1600       136
    36.2200       138
    36.2800       116
    36.3400        92
    36.4000        84
    36.4600        72
    36.5200        66
    36.5800        68
    36.6400        66
    36.7000        62
    36.7600        70
    36.8200        50
    36.8800        58
    36.9400        66
    37.0000        72
    37.0600        58
    37.1200        54
    37.1800        62
    37.2400        40
    37.3000        70
    37.3600        56
    37.4200        48
    37.4800        70
    37.5400        52
    37.6000        60
    37.6600        64
    37.7200        60
    37.7800        54
    37.8400        70
    37.9000        60
    37.9600        54
    38.0200        82
    38.0800        76
    38.1400        60
    38.2000        78
    38.2600        84
    38.3200        92
    38.3800       114
    38.4400       160
    38.5000       158
    38.5600       202
    38.6200       172
    38.6800       140
    38.7400        84
    38.8000        84
    38.8600        62
    38.9200        60
    38.9800        62
    39.0400        48
    39.1000        54
    39.1600        62
    39.2200        66
    39.2800        60
    39.3400        64
    39.4000        52
    39.4600        58
    39.5200        54
    39.5800        76
    39.6400        62
    39.7000        58
    39.7600        38
    39.8200        44
    39.8800        54
    39.9400        46
    40.0000        62
    40.0600        64
    40.1200        58
    40.1800        58
    40.2400        60
    40.3000        60
    40.3600        86
    40.4200        66
    40.4800       100
    40.5400       106
    40.6000       124
    40.6600       160
    40.7200       190
    40.7800       174
    40.8400       138
    40.9000        96
    40.9600        80
    41.0200        98
    41.0800        90
    41.1400       116
    41.2000       120
    41.2600       140
    41.3200       116
    41.3800        72
    41.4400        56
    41.5000        72
    41.5600        68
    41.6200        56
    41.6800        44
    41.7400        64
    41.8000        60
    41.8600        62
    41.9200        66
    41.9800        62
    42.0400        82
    42.1000        84
    42.1600        70
    42.2200        66
    42.2800        54
    42.3400        70
    42.4000        66
    42.4600        58
    42.5200        48
    42.5800        64
    42.6400        76
    42.7000        60
    42.7600        52
    42.8200        56
    42.8800        80
    42.9400        56
    43.0000        60
    43.0600        76
    43.1200        82
    43.1800        96
    43.2400       102
    43.3000       104
    43.3600        94
    43.4200        78
    43.4800        66
    43.5400        70
    43.6000        78
    43.6600        64
    43.7200        60
    43.7800        68
    43.8400        52
    43.9000        52
    43.9600        56
    44.0200        46
    44.0800        44
    44.1400        54
    44.2000        54
    44.2600        72
    44.3200        66
    44.3800        46
    44.4400        54
    44.5000        46
    44.5600        56
    44.6200        72
    44.6800        60
    44.7400        38
    44.8000        52
    44.8600        64
    44.9200        60
    44.9800        54
    45.0400        70
    45.1000        50
    45.1600        64
    45.2200        68
    45.2800        82
    45.3400        72
    45.4000        96
    45.4600        92
    45.5200        66
    45.5800        50
    45.6400        66
    45.7000        54
    45.7600        56
    45.8200        54
    45.8800        64
    45.9400        44
    46.0000        46
    46.0600        62
    46.1200        52
    46.1800        64
    46.2400        56
    46.3000        58
    46.3600        40
    46.4200        58
    46.4800        62
    46.5400        40
    46.6000        76
    46.6600        68
    46.7200        76
    46.7800        66
    46.8400        60
    46.9000        60
    46.9600        62
    47.0200        58
    47.0800        62
    47.1400        72
    47.2000        52
    47.2600        60
    47.3200        44
    47.3800        64
    47.4400        66
    47.5000        48
    47.5600        54
    47.6200        46
    47.6800        76
    47.7400        78
    47.8000        92
    47.8600        76
    47.9200        76
    47.9800        74
    48.0400        50
    48.1000        56
    48.1600        72
    48.2200        84
    48.2800        80
    48.3400        70
    48.4000       114
    48.4600       120
    48.5200       154
    48.5800       146
    48.6400       156
    48.7000       130
    48.7600       100
    48.8200        96
    48.8800        84
    48.9400        62
    49.0000        92
    49.0600        82
    49.1200        86
    49.1800        78
    49.2400        70
    49.3000        62
    49.3600        54
    49.4200        60
    49.4800        50
    49.5400        56
    49.6000        54
    49.6600        64
    49.7200        50
    49.7800        66
    49.8400        62
    49.9000        44
    49.9600        48
    50.0200        44
    50.0800        52
    50.1400        50
    50.2000        62
    50.2600        42
    50.3200        58
    50.3800        44
    50.4400        58
    50.5000        56
    50.5600        56
    50.6200        48
    50.6800        54
    50.7400        58
    50.8000        40
    50.8600        36
    50.9200        50
    50.9800        34
    51.0400        56
    51.1000        74
    51.1600        62
    51.2200        58
    51.2800        62
    51.3400        60
    51.4000        60
    51.4600        52
    51.5200        50
    51.5800        60
    51.6400        62
    51.7000        66
    51.7600        52
    51.8200        56
    51.8800        68
    51.9400        82
    52.0000        84
    52.0600       128
    52.1200       164
    52.1800       190
    52.2400       134
    52.3000       110
    52.3600       116
    52.4200        68
    52.4800        72
    52.5400        60
    52.6000        72
    52.6600        44
    52.7200        42
    52.7800        60
    52.8400        44
    52.9000        50
    52.9600        42
    53.0200        50
    53.0800        54
    53.1400        60
    53.2000        60
    53.2600        40
    53.3200        52
    53.3800        56
    53.4400        40
    53.5000        58
    53.5600        52
    53.6200        74
    53.6800        50
    53.7400        58
    53.8000        60
    53.8600        72
    53.9200        66
    53.9800        64
    54.0400        52
    54.1000        62
    54.1600        68
    54.2200        54
    54.2800        66
    54.3400        68
    54.4000        56
    54.4600        52
    54.5200        52
    54.5800        66
    54.6400        60
    54.7000        50
    54.7600        68
    54.8200        60
    54.8800        70
    54.9400        78
    55.0000        58
    55.0600        76
    55.1200        64
    55.1800        54
    55.2400        64
    55.3000        76
    55.3600        72
    55.4200        70
    55.4800        82
    55.5400        82
    55.6000       128
    55.6600       118
    55.7200        98
    55.7800        88
    55.8400        80
    55.9000        66
    55.9600        82
    56.0200        58
    56.0800        66
    56.1400        56
    56.2000        52
    56.2600        72
    56.3200        58
    56.3800        76
    56.4400        84
    56.5000        72
    56.5600        68
    56.6200        62
    56.6800        66
    56.7400        40
    56.8000        60
    56.8600        64
    56.9200        50
    56.9800        64
    57.0400        50
    57.1000        48
    57.1600        56
    57.2200        38
    57.2800        54
    57.3400        44
    57.4000        54
    57.4600        50
    57.5200        52
    57.5800        48
    57.6400        60
    57.7000        56
    57.7600        64
    57.8200        60
    57.8800        42
    57.9400        42
    58.0000        44
    58.0600        56
    58.1200        62
    58.1800        46
    58.2400        42
    58.3000        52
    58.3600        62
    58.4200        58
    58.4800        36
    58.5400        50
    58.6000        54
    58.6600        66
    58.7200        66
    58.7800        64
    58.8400        72
    58.9000        72
    58.9600        76
    59.0200        48
    59.0800        68
    59.1400        52
    59.2000        34
    59.2600        68
    59.3200        58
    59.3800        44
    59.4400        50
    59.5000        62
    59.5600        52
    59.6200        56
    59.6800        52
    59.7400        50
    59.8000        44
    59.8600        46
    59.9200        62
    59.9800        50
    60.0400        48
    60.1000        46
    60.1600        40
    60.2200        48
    60.2800        56
    60.3400        60
    60.4000        70
    60.4600        56
    60.5200        64
    60.5800        76
    60.6400        66
    60.7000        72
    60.7600        64
    60.8200        58
    60.8800        68
    60.9400        46
    61.0000        66
    61.0600        56
    61.1200        54
    61.1800        60
    61.2400        48
    61.3000        58
    61.3600        44
    61.4200        52
    61.4800        54
    61.5400        56
    61.6000        52
    61.6600        50
    61.7200        50
    61.7800        74
    61.8400        48
    61.9000        48
    61.9600        70
    62.0200        68
    62.0800        96
    62.1400        94
    62.2000        94
    62.2600        76
    62.3200        72
    62.3800        82
    62.4400        66
    62.5000        66
    62.5600        66
    62.6200        66
    62.6800        54
    62.7400        56
    62.8000        52
    62.8600        50
    62.9200        50
    62.9800        48
    63.0400        48
    63.1000        50
    63.1600        44
    63.2200        58
    63.2800        54
    63.3400        44
    63.4000        46
    63.4600        46
    63.5200        40
    63.5800        46
    63.6400        40
    63.7000        52
    63.7600        52
    63.8200        44
    63.8800        52
    63.9400        50
    64.0000        56
    64.0600        50
    64.1200        48
    64.1800        54
    64.2400        54
    64.3000        50
    64.3600        42
    64.4200        54
    64.4800        48
    64.5400        36
    64.6000        32
    64.6600        50
    64.7200        62
    64.7800        50
    64.8400        48
    64.9000        46
    64.9600        44
    65.0000        46