File: sl1/usgs/library06/DESCRIPT/new_xrd_results_to_be_added/Rhonda_Driscoll_xrd_runs/LV95-30-Epsomite.txt
/////////////////////////////////////////////////////////////////////////////////
/// Profile Data Ascii Dump (XRD)                                             ///
/////////////////////////////////////////////////////////////////////////////////

  Group     : Swayze
  Data      : LV95-30
  File Name : LV95-30.RAW

# Profile Datafile
          comment             = Epsomite
          date & time         = 08-04-09 08:22:13

# Measurement Condition
    X-ray tube
          target              = Cu
          voltage             = 40.0 (kV)
          current             = 30.0 (mA)
    Slits
          divergence slit     = 2.00000 (deg)
          scatter slit        = 2.00000 (deg)
          receiving slit      = 0.15000 (mm)
    Scanning
          drive axis          = Theta-2Theta
          scan range          =    4.000 -   65.000
          scan mode           = Continuous Scan
          scan speed          =   2.0000 (deg/min)
          sampling pitch      =   0.0200 (deg)
          preset time         =   0.60 (sec)

# Data      [ Total No. = 3051 ]
  <2Theta>   <   I   >
     4.0000       184
     4.0600       186
     4.1200       184
     4.1800       186
     4.2400       180
     4.3000       188
     4.3600       196
     4.4200       204
     4.4800       182
     4.5400       176
     4.6000       176
     4.6600       160
     4.7200       160
     4.7800       148
     4.8400       170
     4.9000       166
     4.9600       214
     5.0200       168
     5.0800       166
     5.1400       196
     5.2000       162
     5.2600       176
     5.3200       178
     5.3800       162
     5.4400       182
     5.5000       182
     5.5600       148
     5.6200       164
     5.6800       146
     5.7400       176
     5.8000       174
     5.8600       162
     5.9200       186
     5.9800       152
     6.0400       168
     6.1000       148
     6.1600       152
     6.2200       142
     6.2800       176
     6.3400       148
     6.4000       142
     6.4600       146
     6.5200       138
     6.5800       142
     6.6400       170
     6.7000       130
     6.7600       140
     6.8200       136
     6.8800       130
     6.9400       122
     7.0000       128
     7.0600       132
     7.1200       122
     7.1800       136
     7.2400       106
     7.3000       128
     7.3600       144
     7.4200       130
     7.4800       126
     7.5400       122
     7.6000       146
     7.6600       110
     7.7200       102
     7.7800       112
     7.8400        96
     7.9000       104
     7.9600       116
     8.0200       128
     8.0800       122
     8.1400       150
     8.2000       148
     8.2600       122
     8.3200       148
     8.3800       148
     8.4400       138
     8.5000       122
     8.5600       122
     8.6200       156
     8.6800       150
     8.7400       128
     8.8000       136
     8.8600       124
     8.9200       110
     8.9800       128
     9.0400        94
     9.1000       128
     9.1600       120
     9.2200       104
     9.2800       130
     9.3400       112
     9.4000       144
     9.4600       120
     9.5200       118
     9.5800       130
     9.6400       114
     9.7000       126
     9.7600       108
     9.8200       114
     9.8800       108
     9.9400        90
    10.0000       114
    10.0600       114
    10.1200       118
    10.1800       100
    10.2400        94
    10.3000       100
    10.3600       110
    10.4200       116
    10.4800        92
    10.5400       100
    10.6000        88
    10.6600        98
    10.7200       104
    10.7800       114
    10.8400        88
    10.9000       112
    10.9600        86
    11.0200        84
    11.0800        98
    11.1400        80
    11.2000        92
    11.2600       110
    11.3200        86
    11.3800        84
    11.4400       120
    11.5000       108
    11.5600        92
    11.6200        88
    11.6800        88
    11.7400        90
    11.8000        98
    11.8600        86
    11.9200        88
    11.9800        90
    12.0400       100
    12.1000        96
    12.1600       106
    12.2200       104
    12.2800       120
    12.3400       122
    12.4000       100
    12.4600        86
    12.5200       116
    12.5800       100
    12.6400       136
    12.7000       156
    12.7600       152
    12.8200       204
    12.8800       128
    12.9400       100
    13.0000        86
    13.0600        96
    13.1200        78
    13.1800        78
    13.2400        86
    13.3000        76
    13.3600        80
    13.4200        74
    13.4800        76
    13.5400        72
    13.6000        82
    13.6600        96
    13.7200        72
    13.7800        72
    13.8400        76
    13.9000        80
    13.9600        78
    14.0200        64
    14.0800        80
    14.1400        70
    14.2000        66
    14.2600        70
    14.3200        62
    14.3800        56
    14.4400        66
    14.5000        74
    14.5600        84
    14.6200        62
    14.6800        82
    14.7400        78
    14.8000        70
    14.8600        76
    14.9200        66
    14.9800        50
    15.0400        66
    15.1000        72
    15.1600        62
    15.2200        62
    15.2800        68
    15.3400        66
    15.4000        56
    15.4600        70
    15.5200        72
    15.5800        62
    15.6400        72
    15.7000        98
    15.7600        88
    15.8200        74
    15.8800        72
    15.9400        98
    16.0000       126
    16.0600       196
    16.1200       242
    16.1800       272
    16.2400       178
    16.3000        70
    16.3600        76
    16.4200        84
    16.4800        66
    16.5400        50
    16.6000        70
    16.6600        84
    16.7200        58
    16.7800        50
    16.8400        60
    16.9000        64
    16.9600        92
    17.0200        88
    17.0800        64
    17.1400        58
    17.2000        70
    17.2600        60
    17.3200        64
    17.3800        60
    17.4400        70
    17.5000        72
    17.5600        78
    17.6200        82
    17.6800        74
    17.7400        68
    17.8000        66
    17.8600        64
    17.9200        70
    17.9800        66
    18.0400        72
    18.1000        78
    18.1600        60
    18.2200        80
    18.2800        86
    18.3400        74
    18.4000        72
    18.4600        92
    18.5200        94
    18.5800       108
    18.6400       154
    18.7000       208
    18.7600       144
    18.8200        70
    18.8800        62
    18.9400        60
    19.0000        64
    19.0600        78
    19.1200        76
    19.1800        88
    19.2400        86
    19.3000        76
    19.3600       110
    19.4200       120
    19.4800       182
    19.5400       232
    19.6000       334
    19.6600       480
    19.7200       554
    19.7800       392
    19.8400       238
    19.9000       120
    19.9600       106
    20.0200        96
    20.0800       104
    20.1400        84
    20.2000       102
    20.2600       110
    20.3200       120
    20.3800       110
    20.4400       214
    20.5000       226
    20.5600       222
    20.6200       298
    20.6800       344
    20.7400       252
    20.8000       168
    20.8600       110
    20.9200       100
    20.9800       100
    21.0400        86
    21.1000        90
    21.1600        86
    21.2200        78
    21.2800        72
    21.3400        82
    21.4000        76
    21.4600        78
    21.5200        80
    21.5800        70
    21.6400       108
    21.7000        92
    21.7600       132
    21.8200       132
    21.8800       106
    21.9400        96
    22.0000        86
    22.0600        88
    22.1200       112
    22.1800       150
    22.2400       266
    22.3000       342
    22.3600       330
    22.4200       178
    22.4800       122
    22.5400        74
    22.6000        84
    22.6600        90
    22.7200        84
    22.7800        82
    22.8400        76
    22.9000        78
    22.9600        88
    23.0200        86
    23.0800       102
    23.1400       120
    23.2000       134
    23.2600       138
    23.3200       112
    23.3800       126
    23.4400       122
    23.5000       108
    23.5600        86
    23.6200        96
    23.6800        86
    23.7400        88
    23.8000        62
    23.8600        74
    23.9200       106
    23.9800       134
    24.0400       102
    24.1000        98
    24.1600        94
    24.2200        96
    24.2800        78
    24.3400        92
    24.4000        84
    24.4600        98
    24.5200       138
    24.5800       134
    24.6400       114
    24.7000        76
    24.7600        96
    24.8200        82
    24.8800        92
    24.9400        68
    25.0000        84
    25.0600        92
    25.1200        80
    25.1800        80
    25.2400        86
    25.3000        98
    25.3600        92
    25.4200       124
    25.4800       108
    25.5400       132
    25.6000        92
    25.6600        90
    25.7200        84
    25.7800        84
    25.8400       114
    25.9000       180
    25.9600       242
    26.0200       330
    26.0800       304
    26.1400       242
    26.2000       240
    26.2600       332
    26.3200       560
    26.3800      1224
    26.4400      1754
    26.5000      1502
    26.5600       720
    26.6200       320
    26.6800       210
    26.7400       172
    26.8000       148
    26.8600       150
    26.9200       146
    26.9800       112
    27.0400       140
    27.1000       140
    27.1600       148
    27.2200       200
    27.2800       244
    27.3400       252
    27.4000       216
    27.4600       258
    27.5200       356
    27.5800       378
    27.6400       258
    27.7000       218
    27.7600       194
    27.8200       204
    27.8800       164
    27.9400       148
    28.0000       132
    28.0600       108
    28.1200       112
    28.1800        86
    28.2400        74
    28.3000        64
    28.3600        70
    28.4200        68
    28.4800        80
    28.5400        64
    28.6000        50
    28.6600        62
    28.7200        66
    28.7800        88
    28.8400        98
    28.9000        98
    28.9600        86
    29.0200        88
    29.0800        64
    29.1400        62
    29.2000        78
    29.2600        60
    29.3200        54
    29.3800        74
    29.4400        90
    29.5000        82
    29.5600        98
    29.6200       108
    29.6800       158
    29.7400       190
    29.8000       188
    29.8600       198
    29.9200       178
    29.9800       192
    30.0400       266
    30.1000       346
    30.1600       412
    30.2200       308
    30.2800       176
    30.3400       138
    30.4000       104
    30.4600        86
    30.5200       106
    30.5800       102
    30.6400       108
    30.7000       118
    30.7600       114
    30.8200       130
    30.8800       134
    30.9400       124
    31.0000        98
    31.0600        78
    31.1200        82
    31.1800        52
    31.2400        56
    31.3000        70
    31.3600        50
    31.4200        64
    31.4800        62
    31.5400        74
    31.6000        66
    31.6600        60
    31.7200        74
    31.7800        90
    31.8400        90
    31.9000        90
    31.9600        84
    32.0200       132
    32.0800       156
    32.1400       180
    32.2000       190
    32.2600       154
    32.3200       116
    32.3800        98
    32.4400        82
    32.5000        74
    32.5600       118
    32.6200       136
    32.6800       134
    32.7400        90
    32.8000        86
    32.8600        90
    32.9200       112
    32.9800       114
    33.0400        96
    33.1000        92
    33.1600        76
    33.2200        84
    33.2800        82
    33.3400        68
    33.4000        68
    33.4600        76
    33.5200        58
    33.5800        52
    33.6400        90
    33.7000        86
    33.7600        90
    33.8200        60
    33.8800        62
    33.9400        72
    34.0000        84
    34.0600        56
    34.1200        86
    34.1800        86
    34.2400        78
    34.3000       102
    34.3600       120
    34.4200       102
    34.4800       100
    34.5400       150
    34.6000       164
    34.6600       194
    34.7200       174
    34.7800       148
    34.8400       186
    34.9000       238
    34.9600       206
    35.0200       150
    35.0800       120
    35.1400        98
    35.2000        88
    35.2600        84
    35.3200        84
    35.3800        76
    35.4400        74
    35.5000        60
    35.5600        86
    35.6200        76
    35.6800        78
    35.7400        94
    35.8000        98
    35.8600        66
    35.9200        86
    35.9800       100
    36.0400       116
    36.1000       116
    36.1600       114
    36.2200       132
    36.2800       194
    36.3400       256
    36.4000       212
    36.4600       184
    36.5200       128
    36.5800        94
    36.6400        76
    36.7000        86
    36.7600        96
    36.8200       122
    36.8800       186
    36.9400       186
    37.0000       136
    37.0600       138
    37.1200        92
    37.1800        84
    37.2400        80
    37.3000       112
    37.3600       108
    37.4200       122
    37.4800       106
    37.5400       110
    37.6000        86
    37.6600        96
    37.7200       108
    37.7800       106
    37.8400       116
    37.9000       118
    37.9600       150
    38.0200       154
    38.0800       154
    38.1400       130
    38.2000       126
    38.2600        84
    38.3200        72
    38.3800        50
    38.4400        68
    38.5000        68
    38.5600        64
    38.6200        94
    38.6800       104
    38.7400       112
    38.8000        86
    38.8600        64
    38.9200        52
    38.9800        56
    39.0400        62
    39.1000        66
    39.1600        88
    39.2200       168
    39.2800       190
    39.3400       194
    39.4000       152
    39.4600       124
    39.5200       188
    39.5800       188
    39.6400       142
    39.7000       128
    39.7600       108
    39.8200       102
    39.8800        92
    39.9400        82
    40.0000        78
    40.0600       110
    40.1200       122
    40.1800        88
    40.2400       100
    40.3000        88
    40.3600        88
    40.4200       108
    40.4800        88
    40.5400        62
    40.6000        60
    40.6600        66
    40.7200        60
    40.7800        54
    40.8400        50
    40.9000        62
    40.9600        60
    41.0200        52
    41.0800        68
    41.1400        80
    41.2000        66
    41.2600        74
    41.3200        68
    41.3800        50
    41.4400        74
    41.5000        54
    41.5600        58
    41.6200        52
    41.6800        78
    41.7400        58
    41.8000        64
    41.8600        62
    41.9200        64
    41.9800        68
    42.0400        80
    42.1000        96
    42.1600       118
    42.2200       134
    42.2800       150
    42.3400       130
    42.4000        98
    42.4600        78
    42.5200        68
    42.5800        64
    42.6400        70
    42.7000        48
    42.7600        62
    42.8200        66
    42.8800        48
    42.9400        60
    43.0000        56
    43.0600        64
    43.1200        48
    43.1800        64
    43.2400        72
    43.3000        56
    43.3600        52
    43.4200        76
    43.4800        48
    43.5400        58
    43.6000        62
    43.6600        42
    43.7200        52
    43.7800        52
    43.8400        42
    43.9000        50
    43.9600        68
    44.0200        58
    44.0800        58
    44.1400        54
    44.2000        48
    44.2600        50
    44.3200        46
    44.3800        50
    44.4400        40
    44.5000        44
    44.5600        54
    44.6200        54
    44.6800        52
    44.7400        54
    44.8000        52
    44.8600        64
    44.9200        48
    44.9800        56
    45.0400        58
    45.1000        78
    45.1600        74
    45.2200        68
    45.2800        62
    45.3400        66
    45.4000        66
    45.4600        72
    45.5200        88
    45.5800        96
    45.6400       106
    45.7000        98
    45.7600       100
    45.8200       100
    45.8800       100
    45.9400       112
    46.0000       100
    46.0600        88
    46.1200        72
    46.1800        76
    46.2400        66
    46.3000        54
    46.3600        46
    46.4200        54
    46.4800        48
    46.5400        52
    46.6000        60
    46.6600        52
    46.7200        96
    46.7800        72
    46.8400        80
    46.9000        74
    46.9600        66
    47.0200        42
    47.0800        54
    47.1400        26
    47.2000        48
    47.2600        48
    47.3200        52
    47.3800        66
    47.4400        66
    47.5000        66
    47.5600        54
    47.6200        66
    47.6800        62
    47.7400        60
    47.8000        64
    47.8600        56
    47.9200        36
    47.9800        60
    48.0400        56
    48.1000        70
    48.1600        58
    48.2200        64
    48.2800       104
    48.3400       102
    48.4000        82
    48.4600        62
    48.5200        60
    48.5800        78
    48.6400        68
    48.7000        58
    48.7600        56
    48.8200        58
    48.8800        50
    48.9400        38
    49.0000        30
    49.0600        52
    49.1200        48
    49.1800        44
    49.2400        56
    49.3000        46
    49.3600        46
    49.4200        48
    49.4800        36
    49.5400        42
    49.6000        70
    49.6600        58
    49.7200        60
    49.7800        70
    49.8400       118
    49.9000       204
    49.9600       252
    50.0200       194
    50.0800       156
    50.1400       112
    50.2000        82
    50.2600        72
    50.3200        62
    50.3800        70
    50.4400        62
    50.5000       100
    50.5600       122
    50.6200       132
    50.6800       102
    50.7400        78
    50.8000        90
    50.8600        66
    50.9200        50
    50.9800        60
    51.0400        52
    51.1000        66
    51.1600        64
    51.2200        72
    51.2800        50
    51.3400        58
    51.4000        58
    51.4600        56
    51.5200        48
    51.5800        58
    51.6400        40
    51.7000        62
    51.7600        36
    51.8200        54
    51.8800        46
    51.9400        58
    52.0000        72
    52.0600        68
    52.1200        46
    52.1800        58
    52.2400        58
    52.3000        58
    52.3600        56
    52.4200        68
    52.4800        68
    52.5400        60
    52.6000        44
    52.6600        50
    52.7200        40
    52.7800        50
    52.8400        50
    52.9000        58
    52.9600        70
    53.0200        78
    53.0800       110
    53.1400        96
    53.2000        64
    53.2600        74
    53.3200        54
    53.3800        60
    53.4400        56
    53.5000        46
    53.5600        56
    53.6200        50
    53.6800        44
    53.7400        58
    53.8000        50
    53.8600        42
    53.9200        56
    53.9800        50
    54.0400        40
    54.1000        58
    54.1600        32
    54.2200        60
    54.2800        56
    54.3400        60
    54.4000        48
    54.4600        58
    54.5200        70
    54.5800        86
    54.6400       100
    54.7000       120
    54.7600        96
    54.8200        92
    54.8800        82
    54.9400        82
    55.0000       106
    55.0600        72
    55.1200        94
    55.1800        98
    55.2400       102
    55.3000       106
    55.3600        90
    55.4200        70
    55.4800        92
    55.5400        58
    55.6000        70
    55.6600        80
    55.7200        86
    55.7800        88
    55.8400        66
    55.9000        76
    55.9600        64
    56.0200        92
    56.0800       108
    56.1400        98
    56.2000        72
    56.2600        72
    56.3200        74
    56.3800        64
    56.4400        60
    56.5000        54
    56.5600        56
    56.6200        38
    56.6800        44
    56.7400        48
    56.8000        46
    56.8600        42
    56.9200        52
    56.9800        48
    57.0400        46
    57.1000        36
    57.1600        48
    57.2200        76
    57.2800        62
    57.3400        46
    57.4000        60
    57.4600        56
    57.5200        50
    57.5800        48
    57.6400        56
    57.7000        50
    57.7600        62
    57.8200        50
    57.8800        62
    57.9400        76
    58.0000        50
    58.0600        48
    58.1200        50
    58.1800        60
    58.2400        40
    58.3000        48
    58.3600        64
    58.4200        58
    58.4800        70
    58.5400        66
    58.6000        62
    58.6600        56
    58.7200        56
    58.7800        56
    58.8400        52
    58.9000        60
    58.9600        54
    59.0200        66
    59.0800        74
    59.1400        66
    59.2000        76
    59.2600        46
    59.3200        38
    59.3800        40
    59.4400        56
    59.5000        56
    59.5600        60
    59.6200        70
    59.6800       102
    59.7400       184
    59.8000       212
    59.8600       146
    59.9200       120
    59.9800       126
    60.0400        70
    60.1000        88
    60.1600        70
    60.2200        78
    60.2800        54
    60.3400        56
    60.4000        38
    60.4600        52
    60.5200        74
    60.5800        54
    60.6400        42
    60.7000        56
    60.7600        64
    60.8200        62
    60.8800        50
    60.9400        60
    61.0000        64
    61.0600        90
    61.1200        80
    61.1800        92
    61.2400       126
    61.3000       104
    61.3600        96
    61.4200       104
    61.4800       102
    61.5400        80
    61.6000        70
    61.6600        78
    61.7200        72
    61.7800        72
    61.8400        82
    61.9000        66
    61.9600        66
    62.0200        64
    62.0800        74
    62.1400        68
    62.2000        56
    62.2600        62
    62.3200        68
    62.3800        60
    62.4400        46
    62.5000        44
    62.5600        62
    62.6200        56
    62.6800        56
    62.7400        48
    62.8000        56
    62.8600        56
    62.9200        62
    62.9800        52
    63.0400        56
    63.1000        48
    63.1600        34
    63.2200        56
    63.2800        72
    63.3400        58
    63.4000        42
    63.4600        52
    63.5200        46
    63.5800        54
    63.6400        52
    63.7000        66
    63.7600        52
    63.8200        82
    63.8800       108
    63.9400        74
    64.0000        86
    64.0600       106
    64.1200        90
    64.1800        72
    64.2400        72
    64.3000        82
    64.3600        56
    64.4200        62
    64.4800        54
    64.5400        52
    64.6000        48
    64.6600        48
    64.7200        64
    64.7800        48
    64.8400        46
    64.9000        50
    64.9600        48
    65.0000        48