File: sl1/usgs/library06/DESCRIPT/new_xrd_results_to_be_added/Rhonda_Driscoll_xrd_runs/No.-197.1B---Chlorite.txt
/////////////////////////////////////////////////////////////////////////////////
/// Profile Data Ascii Dump (XRD)                                             ///
/////////////////////////////////////////////////////////////////////////////////

  Group     : Swayze
  Data      : No 197 1B
  File Name : No 197 1B.RAW

# Profile Datafile
          comment             = Chlorite
          date & time         = 08-03-13 06:21:52

# Measurement Condition
    X-ray tube
          target              = Cu
          voltage             = 40.0 (kV)
          current             = 30.0 (mA)
    Slits
          divergence slit     = 2.00000 (deg)
          scatter slit        = 2.00000 (deg)
          receiving slit      = 0.15000 (mm)
    Scanning
          drive axis          = Theta-2Theta
          scan range          =    4.000 -   65.000
          scan mode           = Continuous Scan
          scan speed          =   2.0000 (deg/min)
          sampling pitch      =   0.0200 (deg)
          preset time         =   0.60 (sec)

# Data      [ Total No. = 3051 ]
  <2Theta>   <   I   >
     4.0000       180
     4.0600       196
     4.1200       182
     4.1800       218
     4.2400       170
     4.3000       188
     4.3600       194
     4.4200       190
     4.4800       204
     4.5400       188
     4.6000       172
     4.6600       184
     4.7200       182
     4.7800       192
     4.8400       192
     4.9000       158
     4.9600       188
     5.0200       176
     5.0800       182
     5.1400       184
     5.2000       172
     5.2600       188
     5.3200       194
     5.3800       186
     5.4400       192
     5.5000       208
     5.5600       202
     5.6200       230
     5.6800       232
     5.7400       254
     5.8000       292
     5.8600       276
     5.9200       312
     5.9800       352
     6.0400       466
     6.1000       610
     6.1600       486
     6.2200       244
     6.2800       186
     6.3400       166
     6.4000       174
     6.4600       152
     6.5200       158
     6.5800       134
     6.6400       142
     6.7000       140
     6.7600       130
     6.8200       144
     6.8800       132
     6.9400       138
     7.0000       122
     7.0600       132
     7.1200       130
     7.1800       130
     7.2400       124
     7.3000       124
     7.3600       120
     7.4200       126
     7.4800       122
     7.5400       122
     7.6000       124
     7.6600       122
     7.7200       116
     7.7800       136
     7.8400       130
     7.9000       106
     7.9600       132
     8.0200       136
     8.0800       106
     8.1400       120
     8.2000       144
     8.2600       132
     8.3200       106
     8.3800       118
     8.4400       138
     8.5000       120
     8.5600       124
     8.6200       124
     8.6800       132
     8.7400       130
     8.8000       110
     8.8600       124
     8.9200       114
     8.9800       138
     9.0400       120
     9.1000       118
     9.1600       118
     9.2200       122
     9.2800       116
     9.3400       124
     9.4000       124
     9.4600       114
     9.5200       120
     9.5800       120
     9.6400       178
     9.7000       184
     9.7600       208
     9.8200       186
     9.8800       128
     9.9400       124
    10.0000       134
    10.0600       108
    10.1200       136
    10.1800       112
    10.2400       136
    10.3000       102
    10.3600       120
    10.4200       100
    10.4800        94
    10.5400       114
    10.6000       112
    10.6600        94
    10.7200       108
    10.7800       102
    10.8400       102
    10.9000        82
    10.9600       106
    11.0200       108
    11.0800        94
    11.1400       100
    11.2000       108
    11.2600        96
    11.3200       120
    11.3800       124
    11.4400       124
    11.5000       116
    11.5600       106
    11.6200       118
    11.6800       126
    11.7400       130
    11.8000       136
    11.8600       138
    11.9200       162
    11.9800       182
    12.0400       268
    12.1000       286
    12.1600       384
    12.2200       482
    12.2800       738
    12.3400       880
    12.4000       602
    12.4600       296
    12.5200       154
    12.5800       140
    12.6400       126
    12.7000        90
    12.7600       106
    12.8200       102
    12.8800        96
    12.9400        84
    13.0000       100
    13.0600        80
    13.1200        78
    13.1800        88
    13.2400        62
    13.3000        66
    13.3600        70
    13.4200        78
    13.4800       100
    13.5400        86
    13.6000        84
    13.6600        94
    13.7200        78
    13.7800        82
    13.8400        80
    13.9000        82
    13.9600        66
    14.0200        78
    14.0800        80
    14.1400        78
    14.2000        64
    14.2600        68
    14.3200        70
    14.3800        76
    14.4400        74
    14.5000        76
    14.5600        78
    14.6200        70
    14.6800        84
    14.7400        72
    14.8000        48
    14.8600        72
    14.9200        48
    14.9800        68
    15.0400        64
    15.1000        96
    15.1600        50
    15.2200        62
    15.2800        76
    15.3400        66
    15.4000        64
    15.4600        88
    15.5200        74
    15.5800        76
    15.6400        62
    15.7000        70
    15.7600        82
    15.8200        76
    15.8800        66
    15.9400        58
    16.0000        66
    16.0600        66
    16.1200        56
    16.1800        68
    16.2400        66
    16.3000        66
    16.3600        66
    16.4200        68
    16.4800        82
    16.5400        84
    16.6000        64
    16.6600        74
    16.7200        68
    16.7800        54
    16.8400        82
    16.9000        80
    16.9600        68
    17.0200        52
    17.0800        62
    17.1400        62
    17.2000        66
    17.2600        56
    17.3200        74
    17.3800        70
    17.4400        64
    17.5000        74
    17.5600        58
    17.6200        66
    17.6800        56
    17.7400        90
    17.8000        76
    17.8600        82
    17.9200        60
    17.9800        72
    18.0400        70
    18.1000        88
    18.1600       110
    18.2200       132
    18.2800       134
    18.3400       192
    18.4000       278
    18.4600       352
    18.5200       532
    18.5800       724
    18.6400       666
    18.7000       362
    18.7600       194
    18.8200       162
    18.8800       144
    18.9400       130
    19.0000       172
    19.0600       242
    19.1200       284
    19.1800       264
    19.2400       210
    19.3000       210
    19.3600       194
    19.4200       180
    19.4800       156
    19.5400       166
    19.6000       162
    19.6600       152
    19.7200       150
    19.7800       130
    19.8400       138
    19.9000       136
    19.9600       142
    20.0200       120
    20.0800       124
    20.1400       138
    20.2000       126
    20.2600       142
    20.3200       124
    20.3800       112
    20.4400       126
    20.5000       130
    20.5600       124
    20.6200       114
    20.6800       110
    20.7400       128
    20.8000       126
    20.8600       104
    20.9200       108
    20.9800       118
    21.0400        90
    21.1000       112
    21.1600       108
    21.2200       122
    21.2800       102
    21.3400        96
    21.4000       116
    21.4600        88
    21.5200        86
    21.5800        96
    21.6400        90
    21.7000        94
    21.7600        84
    21.8200       120
    21.8800        98
    21.9400        92
    22.0000        80
    22.0600        98
    22.1200        88
    22.1800        86
    22.2400        88
    22.3000        90
    22.3600        84
    22.4200        92
    22.4800        82
    22.5400       102
    22.6000        98
    22.6600        76
    22.7200        92
    22.7800       104
    22.8400        98
    22.9000       108
    22.9600        96
    23.0200        76
    23.0800        96
    23.1400        82
    23.2000       100
    23.2600        86
    23.3200        68
    23.3800        66
    23.4400        70
    23.5000        80
    23.5600        88
    23.6200        98
    23.6800        70
    23.7400       100
    23.8000        76
    23.8600        96
    23.9200       104
    23.9800        82
    24.0400        80
    24.1000       100
    24.1600        90
    24.2200        82
    24.2800        78
    24.3400       104
    24.4000       116
    24.4600       118
    24.5200       150
    24.5800       182
    24.6400       200
    24.7000       288
    24.7600       418
    24.8200       644
    24.8800       948
    24.9400      1038
    25.0000       788
    25.0600       418
    25.1200       210
    25.1800       140
    25.2400       120
    25.3000       106
    25.3600        94
    25.4200        92
    25.4800        94
    25.5400        88
    25.6000        86
    25.6600        68
    25.7200        74
    25.7800        62
    25.8400        80
    25.9000        82
    25.9600        58
    26.0200        64
    26.0800        68
    26.1400        54
    26.2000        86
    26.2600        76
    26.3200        66
    26.3800        52
    26.4400        58
    26.5000        64
    26.5600        72
    26.6200        60
    26.6800        54
    26.7400        76
    26.8000        58
    26.8600        58
    26.9200        62
    26.9800        66
    27.0400        50
    27.1000        74
    27.1600        48
    27.2200        92
    27.2800        62
    27.3400        62
    27.4000        62
    27.4600        64
    27.5200        64
    27.5800        62
    27.6400        54
    27.7000        56
    27.7600        56
    27.8200        52
    27.8800        56
    27.9400        52
    28.0000        68
    28.0600        60
    28.1200        58
    28.1800        64
    28.2400        52
    28.3000        58
    28.3600        52
    28.4200        62
    28.4800        58
    28.5400        52
    28.6000        52
    28.6600        48
    28.7200        48
    28.7800        56
    28.8400        50
    28.9000        46
    28.9600        46
    29.0200        60
    29.0800        52
    29.1400        48
    29.2000        50
    29.2600        50
    29.3200        58
    29.3800        38
    29.4400        52
    29.5000        62
    29.5600        58
    29.6200        64
    29.6800        52
    29.7400        50
    29.8000        58
    29.8600        54
    29.9200        60
    29.9800        48
    30.0400        66
    30.1000        52
    30.1600        52
    30.2200        56
    30.2800        58
    30.3400        44
    30.4000        60
    30.4600        46
    30.5200        52
    30.5800        60
    30.6400        62
    30.7000        64
    30.7600        52
    30.8200        62
    30.8800        72
    30.9400        72
    31.0000        78
    31.0600        84
    31.1200       140
    31.1800       176
    31.2400       230
    31.3000       276
    31.3600       314
    31.4200       216
    31.4800       122
    31.5400        90
    31.6000        66
    31.6600        60
    31.7200        78
    31.7800        54
    31.8400        48
    31.9000        54
    31.9600        48
    32.0200        48
    32.0800        64
    32.1400        52
    32.2000        42
    32.2600        48
    32.3200        64
    32.3800        52
    32.4400        64
    32.5000        40
    32.5600        44
    32.6200        68
    32.6800        42
    32.7400        42
    32.8000        60
    32.8600        48
    32.9200        58
    32.9800        42
    33.0400        54
    33.1000        58
    33.1600        44
    33.2200        50
    33.2800        56
    33.3400        56
    33.4000        74
    33.4600        84
    33.5200        92
    33.5800        92
    33.6400       100
    33.7000        80
    33.7600        64
    33.8200        76
    33.8800        84
    33.9400        58
    34.0000        78
    34.0600        88
    34.1200        80
    34.1800       114
    34.2400       120
    34.3000       144
    34.3600       182
    34.4200       234
    34.4800       332
    34.5400       344
    34.6000       324
    34.6600       254
    34.7200       168
    34.7800       198
    34.8400       204
    34.9000       230
    34.9600       254
    35.0200       382
    35.0800       468
    35.1400       552
    35.2000       482
    35.2600       302
    35.3200       224
    35.3800       142
    35.4400       144
    35.5000       108
    35.5600       140
    35.6200       104
    35.6800       100
    35.7400        84
    35.8000        88
    35.8600        86
    35.9200        74
    35.9800        94
    36.0400       110
    36.1000        98
    36.1600        98
    36.2200       116
    36.2800       138
    36.3400       132
    36.4000       192
    36.4600       210
    36.5200       292
    36.5800       406
    36.6400       432
    36.7000       426
    36.7600       328
    36.8200       246
    36.8800       172
    36.9400       132
    37.0000       130
    37.0600       104
    37.1200        98
    37.1800       106
    37.2400       102
    37.3000       108
    37.3600       138
    37.4200       166
    37.4800       208
    37.5400       234
    37.6000       228
    37.6600       214
    37.7200       200
    37.7800       158
    37.8400       124
    37.9000       100
    37.9600        98
    38.0200        74
    38.0800        82
    38.1400        62
    38.2000        62
    38.2600        66
    38.3200        66
    38.3800        54
    38.4400        60
    38.5000        72
    38.5600        60
    38.6200        66
    38.6800        56
    38.7400        66
    38.8000        60
    38.8600        72
    38.9200        84
    38.9800        62
    39.0400        72
    39.1000        68
    39.1600        78
    39.2200        94
    39.2800        74
    39.3400        82
    39.4000        98
    39.4600       102
    39.5200       124
    39.5800       140
    39.6400       188
    39.7000       210
    39.7600       198
    39.8200       156
    39.8800       134
    39.9400       116
    40.0000        78
    40.0600        58
    40.1200        64
    40.1800        66
    40.2400        56
    40.3000        66
    40.3600        56
    40.4200        56
    40.4800        52
    40.5400        54
    40.6000        54
    40.6600        50
    40.7200        48
    40.7800        58
    40.8400        40
    40.9000        54
    40.9600        56
    41.0200        70
    41.0800        54
    41.1400        64
    41.2000        50
    41.2600        56
    41.3200        50
    41.3800        36
    41.4400        42
    41.5000        52
    41.5600        38
    41.6200        44
    41.6800        48
    41.7400        46
    41.8000        28
    41.8600        44
    41.9200        44
    41.9800        50
    42.0400        36
    42.1000        44
    42.1600        38
    42.2200        48
    42.2800        58
    42.3400        54
    42.4000        48
    42.4600        44
    42.5200        46
    42.5800        50
    42.6400        38
    42.7000        40
    42.7600        44
    42.8200        48
    42.8800        54
    42.9400        56
    43.0000        60
    43.0600        58
    43.1200        38
    43.1800        50
    43.2400        54
    43.3000        68
    43.3600        58
    43.4200        62
    43.4800        72
    43.5400        94
    43.6000        66
    43.6600        78
    43.7200        78
    43.7800        70
    43.8400        64
    43.9000        54
    43.9600        74
    44.0200        50
    44.0800        76
    44.1400        64
    44.2000        66
    44.2600        80
    44.3200        72
    44.3800       118
    44.4400       120
    44.5000       148
    44.5600       140
    44.6200       108
    44.6800       130
    44.7400       122
    44.8000       156
    44.8600       200
    44.9200       256
    44.9800       294
    45.0400       368
    45.1000       386
    45.1600       316
    45.2200       244
    45.2800       172
    45.3400       172
    45.4000       118
    45.4600       114
    45.5200       102
    45.5800        90
    45.6400        60
    45.7000        66
    45.7600        64
    45.8200        52
    45.8800        60
    45.9400        62
    46.0000        50
    46.0600        46
    46.1200        58
    46.1800        52
    46.2400        46
    46.3000        36
    46.3600        48
    46.4200        44
    46.4800        42
    46.5400        46
    46.6000        48
    46.6600        34
    46.7200        40
    46.7800        50
    46.8400        30
    46.9000        42
    46.9600        40
    47.0200        50
    47.0800        44
    47.1400        60
    47.2000        38
    47.2600        50
    47.3200        42
    47.3800        50
    47.4400        60
    47.5000        52
    47.5600        46
    47.6200        50
    47.6800        50
    47.7400        54
    47.8000        76
    47.8600       106
    47.9200        86
    47.9800       110
    48.0400       122
    48.1000       146
    48.1600       128
    48.2200       120
    48.2800       118
    48.3400        98
    48.4000        72
    48.4600        72
    48.5200        62
    48.5800        58
    48.6400        58
    48.7000        72
    48.7600        48
    48.8200        46
    48.8800        58
    48.9400        48
    49.0000        50
    49.0600        30
    49.1200        46
    49.1800        48
    49.2400        50
    49.3000        52
    49.3600        58
    49.4200        52
    49.4800        76
    49.5400        94
    49.6000        94
    49.6600       100
    49.7200       104
    49.7800       124
    49.8400       142
    49.9000       120
    49.9600        88
    50.0200        70
    50.0800        52
    50.1400        76
    50.2000        58
    50.2600        46
    50.3200        56
    50.3800        56
    50.4400        42
    50.5000        50
    50.5600        32
    50.6200        52
    50.6800        50
    50.7400        52
    50.8000        42
    50.8600        54
    50.9200        50
    50.9800        42
    51.0400        36
    51.1000        46
    51.1600        46
    51.2200        44
    51.2800        48
    51.3400        34
    51.4000        32
    51.4600        44
    51.5200        34
    51.5800        46
    51.6400        40
    51.7000        52
    51.7600        38
    51.8200        46
    51.8800        38
    51.9400        44
    52.0000        44
    52.0600        54
    52.1200        64
    52.1800        56
    52.2400        56
    52.3000        62
    52.3600        80
    52.4200        58
    52.4800        66
    52.5400        54
    52.6000        90
    52.6600        60
    52.7200        66
    52.7800        54
    52.8400        70
    52.9000        78
    52.9600        84
    53.0200        60
    53.0800        70
    53.1400        72
    53.2000        86
    53.2600        60
    53.3200        52
    53.3800        54
    53.4400        78
    53.5000        66
    53.5600        62
    53.6200        54
    53.6800        54
    53.7400        48
    53.8000        66
    53.8600        64
    53.9200        52
    53.9800        46
    54.0400        66
    54.1000        48
    54.1600        52
    54.2200        50
    54.2800        56
    54.3400        52
    54.4000        62
    54.4600        50
    54.5200        58
    54.5800        60
    54.6400        50
    54.7000        56
    54.7600        74
    54.8200        60
    54.8800        68
    54.9400        68
    55.0000        82
    55.0600        96
    55.1200       110
    55.1800        88
    55.2400        58
    55.3000        74
    55.3600        62
    55.4200        54
    55.4800        48
    55.5400        46
    55.6000        40
    55.6600        52
    55.7200        52
    55.7800        48
    55.8400        46
    55.9000        44
    55.9600        46
    56.0200        66
    56.0800        52
    56.1400        52
    56.2000        58
    56.2600        52
    56.3200        40
    56.3800        50
    56.4400        36
    56.5000        50
    56.5600        42
    56.6200        58
    56.6800        38
    56.7400        52
    56.8000        56
    56.8600        48
    56.9200        42
    56.9800        48
    57.0400        52
    57.1000        62
    57.1600        48
    57.2200        60
    57.2800        48
    57.3400        48
    57.4000        58
    57.4600        48
    57.5200        60
    57.5800        52
    57.6400        56
    57.7000        64
    57.7600        58
    57.8200        52
    57.8800        48
    57.9400        52
    58.0000        62
    58.0600        70
    58.1200        74
    58.1800        68
    58.2400        88
    58.3000        86
    58.3600        88
    58.4200       110
    58.4800       160
    58.5400       182
    58.6000       170
    58.6600       208
    58.7200       216
    58.7800       196
    58.8400       204
    58.9000       178
    58.9600       144
    59.0200       124
    59.0800       102
    59.1400        98
    59.2000        78
    59.2600        90
    59.3200        94
    59.3800        66
    59.4400        66
    59.5000        82
    59.5600       104
    59.6200        92
    59.6800       158
    59.7400       182
    59.8000       234
    59.8600       310
    59.9200       396
    59.9800       376
    60.0400       308
    60.1000       256
    60.1600       184
    60.2200       158
    60.2800       138
    60.3400        96
    60.4000       102
    60.4600        80
    60.5200        62
    60.5800        80
    60.6400        74
    60.7000        70
    60.7600        68
    60.8200        82
    60.8800        66
    60.9400        72
    61.0000        60
    61.0600        62
    61.1200        70
    61.1800        90
    61.2400        80
    61.3000        98
    61.3600       128
    61.4200       130
    61.4800       130
    61.5400       148
    61.6000       136
    61.6600        90
    61.7200        92
    61.7800        70
    61.8400        62
    61.9000        52
    61.9600        46
    62.0200        46
    62.0800        46
    62.1400        40
    62.2000        38
    62.2600        48
    62.3200        44
    62.3800        36
    62.4400        56
    62.5000        42
    62.5600        48
    62.6200        40
    62.6800        44
    62.7400        46
    62.8000        44
    62.8600        40
    62.9200        46
    62.9800        44
    63.0400        64
    63.1000        42
    63.1600        48
    63.2200        44
    63.2800        50
    63.3400        62
    63.4000        56
    63.4600        56
    63.5200        48
    63.5800        44
    63.6400        56
    63.7000        40
    63.7600        42
    63.8200        42
    63.8800        38
    63.9400        34
    64.0000        34
    64.0600        44
    64.1200        36
    64.1800        36
    64.2400        28
    64.3000        42
    64.3600        40
    64.4200        36
    64.4800        44
    64.5400        46
    64.6000        40
    64.6600        52
    64.7200        54
    64.7800        42
    64.8400        50
    64.9000        52
    64.9600        46
    65.0000        40