File: sl1/usgs/library06/DESCRIPT/new_xrd_results_to_be_added/Rhonda_Driscoll_xrd_runs/Olivine-60u-Hoefen.txt
/////////////////////////////////////////////////////////////////////////////////
/// Profile Data Ascii Dump (XRD)                                             ///
/////////////////////////////////////////////////////////////////////////////////

  Group     : Swayze
  Data      : GSB
  File Name : GSB.RAW

# Profile Datafile
          comment             = Olivine-60u-Hoefen
          date & time         = 08-04-28 06:47:29

# Measurement Condition
    X-ray tube
          target              = Cu
          voltage             = 40.0 (kV)
          current             = 30.0 (mA)
    Slits
          divergence slit     = 2.00000 (deg)
          scatter slit        = 2.00000 (deg)
          receiving slit      = 0.15000 (mm)
    Scanning
          drive axis          = Theta-2Theta
          scan range          =    4.000 -   65.000
          scan mode           = Continuous Scan
          scan speed          =   2.0000 (deg/min)
          sampling pitch      =   0.0200 (deg)
          preset time         =   0.60 (sec)

# Data      [ Total No. = 3051 ]
  <2Theta>   <   I   >
     4.0000       176
     4.0600       192
     4.1200       210
     4.1800       188
     4.2400       194
     4.3000       202
     4.3600       178
     4.4200       186
     4.4800       168
     4.5400       134
     4.6000       176
     4.6600       154
     4.7200       182
     4.7800       150
     4.8400       158
     4.9000       188
     4.9600       184
     5.0200       164
     5.0800       178
     5.1400       154
     5.2000       172
     5.2600       162
     5.3200       164
     5.3800       172
     5.4400       164
     5.5000       176
     5.5600       158
     5.6200       166
     5.6800       150
     5.7400       168
     5.8000       154
     5.8600       144
     5.9200       164
     5.9800       164
     6.0400       182
     6.1000       140
     6.1600       158
     6.2200       134
     6.2800       150
     6.3400       160
     6.4000       142
     6.4600       130
     6.5200       134
     6.5800       134
     6.6400       122
     6.7000       132
     6.7600       132
     6.8200       128
     6.8800       116
     6.9400       134
     7.0000       106
     7.0600       128
     7.1200       108
     7.1800       126
     7.2400       112
     7.3000       134
     7.3600       110
     7.4200       100
     7.4800       110
     7.5400       120
     7.6000       124
     7.6600       110
     7.7200       120
     7.7800       150
     7.8400       138
     7.9000       136
     7.9600       110
     8.0200       116
     8.0800       106
     8.1400       106
     8.2000       126
     8.2600       106
     8.3200       114
     8.3800       112
     8.4400       116
     8.5000       108
     8.5600       114
     8.6200       130
     8.6800       104
     8.7400       120
     8.8000       130
     8.8600       122
     8.9200       118
     8.9800        92
     9.0400       126
     9.1000        92
     9.1600       120
     9.2200       110
     9.2800       122
     9.3400       122
     9.4000       112
     9.4600        98
     9.5200       104
     9.5800       106
     9.6400       136
     9.7000       128
     9.7600       116
     9.8200       100
     9.8800       114
     9.9400        90
    10.0000       116
    10.0600       108
    10.1200       108
    10.1800       116
    10.2400       104
    10.3000       128
    10.3600       110
    10.4200       104
    10.4800       132
    10.5400       112
    10.6000       104
    10.6600        88
    10.7200        94
    10.7800        92
    10.8400       102
    10.9000        88
    10.9600       104
    11.0200       106
    11.0800        90
    11.1400       100
    11.2000        88
    11.2600       104
    11.3200        84
    11.3800        68
    11.4400        90
    11.5000        76
    11.5600        76
    11.6200        94
    11.6800        90
    11.7400        88
    11.8000        98
    11.8600        78
    11.9200        84
    11.9800        72
    12.0400        78
    12.1000        94
    12.1600        84
    12.2200        70
    12.2800        90
    12.3400        74
    12.4000        80
    12.4600        96
    12.5200        66
    12.5800        76
    12.6400        82
    12.7000        88
    12.7600        90
    12.8200        74
    12.8800        76
    12.9400        76
    13.0000        72
    13.0600        58
    13.1200        74
    13.1800        74
    13.2400        74
    13.3000        68
    13.3600        52
    13.4200        64
    13.4800        82
    13.5400        58
    13.6000        86
    13.6600        76
    13.7200        84
    13.7800        74
    13.8400        74
    13.9000        72
    13.9600        74
    14.0200        60
    14.0800        78
    14.1400        52
    14.2000        60
    14.2600        74
    14.3200        54
    14.3800        62
    14.4400        64
    14.5000        72
    14.5600        74
    14.6200        60
    14.6800        60
    14.7400        68
    14.8000        72
    14.8600        72
    14.9200        60
    14.9800        70
    15.0400        54
    15.1000        66
    15.1600        68
    15.2200        66
    15.2800        68
    15.3400        64
    15.4000        56
    15.4600        72
    15.5200        60
    15.5800        54
    15.6400        54
    15.7000        60
    15.7600        76
    15.8200        66
    15.8800        84
    15.9400        66
    16.0000        56
    16.0600        74
    16.1200        62
    16.1800        48
    16.2400        76
    16.3000        84
    16.3600        56
    16.4200        64
    16.4800        54
    16.5400        72
    16.6000        62
    16.6600        64
    16.7200        76
    16.7800        62
    16.8400        74
    16.9000        78
    16.9600       104
    17.0200       114
    17.0800       208
    17.1400       226
    17.2000       306
    17.2600       460
    17.3200       296
    17.3800       108
    17.4400        64
    17.5000        64
    17.5600        68
    17.6200        40
    17.6800        58
    17.7400        56
    17.8000        78
    17.8600        54
    17.9200        68
    17.9800        38
    18.0400        42
    18.1000        72
    18.1600        56
    18.2200        46
    18.2800        58
    18.3400        58
    18.4000        70
    18.4600        60
    18.5200        60
    18.5800        58
    18.6400        56
    18.7000        54
    18.7600        66
    18.8200        62
    18.8800        72
    18.9400        52
    19.0000        56
    19.0600        66
    19.1200        54
    19.1800        48
    19.2400        64
    19.3000        62
    19.3600        56
    19.4200        62
    19.4800        58
    19.5400        58
    19.6000        64
    19.6600        44
    19.7200        54
    19.7800        64
    19.8400        56
    19.9000        50
    19.9600        50
    20.0200        56
    20.0800        52
    20.1400        54
    20.2000        48
    20.2600        52
    20.3200        50
    20.3800        56
    20.4400        38
    20.5000        62
    20.5600        50
    20.6200        38
    20.6800        54
    20.7400        48
    20.8000        48
    20.8600        62
    20.9200        44
    20.9800        38
    21.0400        48
    21.1000        52
    21.1600        50
    21.2200        50
    21.2800        58
    21.3400        46
    21.4000        44
    21.4600        70
    21.5200        46
    21.5800        50
    21.6400        56
    21.7000        46
    21.7600        62
    21.8200        56
    21.8800        52
    21.9400        46
    22.0000        48
    22.0600        44
    22.1200        58
    22.1800        58
    22.2400        56
    22.3000        80
    22.3600        70
    22.4200        74
    22.4800        98
    22.5400       136
    22.6000       228
    22.6600       410
    22.7200       610
    22.7800       600
    22.8400       304
    22.9000       128
    22.9600        72
    23.0200        58
    23.0800        48
    23.1400        64
    23.2000        56
    23.2600        52
    23.3200        58
    23.3800        56
    23.4400        52
    23.5000        60
    23.5600        66
    23.6200        92
    23.6800       116
    23.7400       184
    23.8000       174
    23.8600       116
    23.9200        46
    23.9800        58
    24.0400        54
    24.1000        38
    24.1600        44
    24.2200        34
    24.2800        56
    24.3400        44
    24.4000        42
    24.4600        52
    24.5200        50
    24.5800        50
    24.6400        30
    24.7000        58
    24.7600        50
    24.8200        48
    24.8800        54
    24.9400        52
    25.0000        56
    25.0600        64
    25.1200        74
    25.1800       120
    25.2400       180
    25.3000       238
    25.3600       286
    25.4200       248
    25.4800       172
    25.5400       110
    25.6000        58
    25.6600        50
    25.7200        38
    25.7800        46
    25.8400        48
    25.9000        28
    25.9600        42
    26.0200        40
    26.0800        48
    26.1400        42
    26.2000        36
    26.2600        46
    26.3200        28
    26.3800        42
    26.4400        34
    26.5000        50
    26.5600        50
    26.6200        50
    26.6800        34
    26.7400        48
    26.8000        50
    26.8600        50
    26.9200        40
    26.9800        36
    27.0400        34
    27.1000        32
    27.1600        44
    27.2200        30
    27.2800        52
    27.3400        38
    27.4000        46
    27.4600        50
    27.5200        44
    27.5800        42
    27.6400        32
    27.7000        42
    27.7600        30
    27.8200        28
    27.8800        36
    27.9400        34
    28.0000        50
    28.0600        40
    28.1200        56
    28.1800        36
    28.2400        46
    28.3000        38
    28.3600        42
    28.4200        34
    28.4800        40
    28.5400        46
    28.6000        36
    28.6600        32
    28.7200        36
    28.7800        50
    28.8400        38
    28.9000        36
    28.9600        34
    29.0200        42
    29.0800        56
    29.1400        36
    29.2000        46
    29.2600        46
    29.3200        60
    29.3800        68
    29.4400        94
    29.5000       124
    29.5600       192
    29.6200       190
    29.6800       264
    29.7400       188
    29.8000       120
    29.8600        70
    29.9200        50
    29.9800        46
    30.0400        42
    30.1000        50
    30.1600        30
    30.2200        40
    30.2800        38
    30.3400        46
    30.4000        40
    30.4600        36
    30.5200        18
    30.5800        30
    30.6400        38
    30.7000        34
    30.7600        42
    30.8200        52
    30.8800        50
    30.9400        36
    31.0000        40
    31.0600        40
    31.1200        34
    31.1800        44
    31.2400        58
    31.3000        52
    31.3600        40
    31.4200        30
    31.4800        38
    31.5400        52
    31.6000        54
    31.6600        50
    31.7200        50
    31.7800        42
    31.8400        82
    31.9000       108
    31.9600       154
    32.0200       262
    32.0800       558
    32.1400      1044
    32.2000       934
    32.2600       570
    32.3200       230
    32.3800       114
    32.4400        88
    32.5000        60
    32.5600        52
    32.6200        44
    32.6800        60
    32.7400        44
    32.8000        44
    32.8600        36
    32.9200        30
    32.9800        34
    33.0400        36
    33.1000        40
    33.1600        38
    33.2200        30
    33.2800        44
    33.3400        32
    33.4000        36
    33.4600        38
    33.5200        34
    33.5800        44
    33.6400        50
    33.7000        40
    33.7600        38
    33.8200        42
    33.8800        44
    33.9400        38
    34.0000        46
    34.0600        40
    34.1200        40
    34.1800        52
    34.2400        46
    34.3000        36
    34.3600        46
    34.4200        34
    34.4800        54
    34.5400        72
    34.6000        62
    34.6600        54
    34.7200        50
    34.7800        42
    34.8400        52
    34.9000        44
    34.9600        60
    35.0200        66
    35.0800        86
    35.1400        84
    35.2000       102
    35.2600        86
    35.3200       132
    35.3800       226
    35.4400       414
    35.5000       640
    35.5600      1138
    35.6200       874
    35.6800       544
    35.7400       200
    35.8000        98
    35.8600        76
    35.9200        60
    35.9800        70
    36.0400        96
    36.1000       100
    36.1600       182
    36.2200       282
    36.2800       472
    36.3400       804
    36.4000       922
    36.4600       612
    36.5200       328
    36.5800       130
    36.6400        94
    36.7000        60
    36.7600        64
    36.8200        36
    36.8800        46
    36.9400        58
    37.0000        64
    37.0600        48
    37.1200        32
    37.1800        36
    37.2400        42
    37.3000        32
    37.3600        40
    37.4200        44
    37.4800        38
    37.5400        54
    37.6000        42
    37.6600        38
    37.7200        54
    37.7800        44
    37.8400        56
    37.9000        56
    37.9600        74
    38.0200       124
    38.0800       192
    38.1400       312
    38.2000       220
    38.2600       184
    38.3200        62
    38.3800        46
    38.4400        48
    38.5000        38
    38.5600        60
    38.6200        74
    38.6800        90
    38.7400        84
    38.8000        66
    38.8600        58
    38.9200        48
    38.9800        58
    39.0400        46
    39.1000        54
    39.1600        42
    39.2200        62
    39.2800        78
    39.3400       114
    39.4000       152
    39.4600       270
    39.5200       494
    39.5800       426
    39.6400       336
    39.7000       250
    39.7600       176
    39.8200       272
    39.8800       484
    39.9400       376
    40.0000       312
    40.0600       144
    40.1200        62
    40.1800        48
    40.2400        40
    40.3000        30
    40.3600        42
    40.4200        48
    40.4800        28
    40.5400        40
    40.6000        34
    40.6600        32
    40.7200        26
    40.7800        22
    40.8400        34
    40.9000        30
    40.9600        42
    41.0200        34
    41.0800        28
    41.1400        40
    41.2000        44
    41.2600        40
    41.3200        36
    41.3800        44
    41.4400        56
    41.5000        62
    41.5600        98
    41.6200       140
    41.6800       154
    41.7400       108
    41.8000        86
    41.8600        34
    41.9200        32
    41.9800        38
    42.0400        34
    42.1000        36
    42.1600        28
    42.2200        36
    42.2800        38
    42.3400        38
    42.4000        28
    42.4600        20
    42.5200        34
    42.5800        38
    42.6400        34
    42.7000        28
    42.7600        30
    42.8200        32
    42.8800        38
    42.9400        30
    43.0000        30
    43.0600        36
    43.1200        40
    43.1800        32
    43.2400        46
    43.3000        50
    43.3600        36
    43.4200        50
    43.4800        34
    43.5400        28
    43.6000        24
    43.6600        30
    43.7200        28
    43.7800        24
    43.8400        24
    43.9000        24
    43.9600        40
    44.0200        38
    44.0800        24
    44.1400        32
    44.2000        30
    44.2600        52
    44.3200        68
    44.3800        96
    44.4400        72
    44.5000        66
    44.5600        46
    44.6200        42
    44.6800        44
    44.7400        32
    44.8000        24
    44.8600        22
    44.9200        38
    44.9800        34
    45.0400        34
    45.1000        26
    45.1600        26
    45.2200        28
    45.2800        32
    45.3400        22
    45.4000        32
    45.4600        40
    45.5200        36
    45.5800        34
    45.6400        30
    45.7000        30
    45.7600        38
    45.8200        42
    45.8800        24
    45.9400        36
    46.0000        38
    46.0600        24
    46.1200        34
    46.1800        32
    46.2400        34
    46.3000        46
    46.3600        72
    46.4200        52
    46.4800        68
    46.5400        66
    46.6000        60
    46.6600        54
    46.7200        44
    46.7800        46
    46.8400        32
    46.9000        36
    46.9600        42
    47.0200        24
    47.0800        24
    47.1400        28
    47.2000        36
    47.2600        32
    47.3200        36
    47.3800        22
    47.4400        30
    47.5000        32
    47.5600        28
    47.6200        34
    47.6800        36
    47.7400        40
    47.8000        26
    47.8600        40
    47.9200        22
    47.9800        30
    48.0400        32
    48.1000        30
    48.1600        56
    48.2200        74
    48.2800       124
    48.3400        84
    48.4000        88
    48.4600        64
    48.5200        46
    48.5800        30
    48.6400        44
    48.7000        40
    48.7600        38
    48.8200        44
    48.8800        44
    48.9400        38
    49.0000        34
    49.0600        32
    49.1200        32
    49.1800        32
    49.2400        44
    49.3000        28
    49.3600        40
    49.4200        46
    49.4800        28
    49.5400        30
    49.6000        42
    49.6600        32
    49.7200        38
    49.7800        32
    49.8400        28
    49.9000        40
    49.9600        32
    50.0200        26
    50.0800        54
    50.1400        78
    50.2000        84
    50.2600        52
    50.3200        70
    50.3800        58
    50.4400        40
    50.5000        38
    50.5600        38
    50.6200        52
    50.6800        70
    50.7400       102
    50.8000       106
    50.8600        64
    50.9200        70
    50.9800        48
    51.0400        42
    51.1000        34
    51.1600        36
    51.2200        44
    51.2800        34
    51.3400        36
    51.4000        32
    51.4600        42
    51.5200        34
    51.5800        38
    51.6400        44
    51.7000        54
    51.7600        50
    51.8200        74
    51.8800        96
    51.9400       144
    52.0000       308
    52.0600       544
    52.1200       496
    52.1800       388
    52.2400       322
    52.3000       270
    52.3600       292
    52.4200       226
    52.4800       152
    52.5400       144
    52.6000       116
    52.6600       110
    52.7200        96
    52.7800        74
    52.8400        56
    52.9000        42
    52.9600        38
    53.0200        34
    53.0800        22
    53.1400        36
    53.2000        24
    53.2600        24
    53.3200        30
    53.3800        40
    53.4400        30
    53.5000        32
    53.5600        46
    53.6200        42
    53.6800        26
    53.7400        36
    53.8000        26
    53.8600        28
    53.9200        36
    53.9800        30
    54.0400        38
    54.1000        38
    54.1600        34
    54.2200        34
    54.2800        24
    54.3400        30
    54.4000        46
    54.4600        50
    54.5200        44
    54.5800        60
    54.6400        90
    54.7000       170
    54.7600       144
    54.8200       108
    54.8800       104
    54.9400        70
    55.0000        44
    55.0600        34
    55.1200        44
    55.1800        42
    55.2400        30
    55.3000        32
    55.3600        24
    55.4200        32
    55.4800        38
    55.5400        38
    55.6000        40
    55.6600        42
    55.7200        46
    55.7800        70
    55.8400       136
    55.9000       186
    55.9600       198
    56.0200       168
    56.0800       180
    56.1400       100
    56.2000        88
    56.2600        48
    56.3200        42
    56.3800        50
    56.4400        54
    56.5000        64
    56.5600       132
    56.6200       224
    56.6800       266
    56.7400       154
    56.8000       190
    56.8600       122
    56.9200        66
    56.9800        48
    57.0400        26
    57.1000        36
    57.1600        46
    57.2200        72
    57.2800        64
    57.3400        64
    57.4000        64
    57.4600        42
    57.5200        58
    57.5800        54
    57.6400        44
    57.7000        82
    57.7600        90
    57.8200        62
    57.8800        70
    57.9400        62
    58.0000        42
    58.0600        56
    58.1200        38
    58.1800        46
    58.2400        42
    58.3000        46
    58.3600        58
    58.4200        94
    58.4800       104
    58.5400       106
    58.6000        90
    58.6600        90
    58.7200        76
    58.7800        62
    58.8400        44
    58.9000        40
    58.9600        48
    59.0200        26
    59.0800        26
    59.1400        42
    59.2000        40
    59.2600        38
    59.3200        26
    59.3800        30
    59.4400        46
    59.5000        40
    59.5600        26
    59.6200        42
    59.6800        26
    59.7400        26
    59.8000        32
    59.8600        30
    59.9200        34
    59.9800        30
    60.0400        24
    60.1000        40
    60.1600        46
    60.2200        50
    60.2800        40
    60.3400        34
    60.4000        24
    60.4600        42
    60.5200        32
    60.5800        24
    60.6400        28
    60.7000        36
    60.7600        42
    60.8200        32
    60.8800        78
    60.9400        74
    61.0000        98
    61.0600        90
    61.1200        70
    61.1800        52
    61.2400        64
    61.3000        74
    61.3600       108
    61.4200       122
    61.4800        92
    61.5400       122
    61.6000       158
    61.6600       160
    61.7200       302
    61.7800       424
    61.8400       274
    61.9000       186
    61.9600       206
    62.0200       130
    62.0800        68
    62.1400        70
    62.2000        72
    62.2600        64
    62.3200        78
    62.3800       120
    62.4400       268
    62.5000       538
    62.5600       454
    62.6200       270
    62.6800       306
    62.7400       266
    62.8000       102
    62.8600        74
    62.9200        62
    62.9800        58
    63.0400        50
    63.1000        30
    63.1600        44
    63.2200        44
    63.2800        54
    63.3400        44
    63.4000        38
    63.4600        50
    63.5200        44
    63.5800        20
    63.6400        30
    63.7000        30
    63.7600        24
    63.8200        38
    63.8800        36
    63.9400        42
    64.0000        16
    64.0600        46
    64.1200        26
    64.1800        28
    64.2400        32
    64.3000        36
    64.3600        34
    64.4200        28
    64.4800        40
    64.5400        48
    64.6000        58
    64.6600        76
    64.7200        44
    64.7800        50
    64.8400        46
    64.9000        48
    64.9600        36
    65.0000        30