File: sl1/usgs/library06/DESCRIPT/new_xrd_results_to_be_added/Rhonda_Driscoll_xrd_runs/RLO-2126.txt
/////////////////////////////////////////////////////////////////////////////////
/// Profile Data Ascii Dump (XRD)                                             ///
/////////////////////////////////////////////////////////////////////////////////

  Group     : Swayze
  Data      : RLO 2126
  File Name : RLO 2126.RAW

# Profile Datafile
          comment             =
          date & time         = 08-03-11 08:09:36

# Measurement Condition
    X-ray tube
          target              = Cu
          voltage             = 40.0 (kV)
          current             = 30.0 (mA)
    Slits
          divergence slit     = 2.00000 (deg)
          scatter slit        = 2.00000 (deg)
          receiving slit      = 0.15000 (mm)
    Scanning
          drive axis          = Theta-2Theta
          scan range          =    4.000 -   65.000
          scan mode           = Continuous Scan
          scan speed          =   2.0000 (deg/min)
          sampling pitch      =   0.0200 (deg)
          preset time         =   0.60 (sec)

# Data      [ Total No. = 3051 ]
  <2Theta>   <   I   >
     4.0000       212
     4.0600       226
     4.1200       210
     4.1800       216
     4.2400       212
     4.3000       188
     4.3600       192
     4.4200       178
     4.4800       176
     4.5400       192
     4.6000       174
     4.6600       188
     4.7200       176
     4.7800       214
     4.8400       180
     4.9000       182
     4.9600       180
     5.0200       206
     5.0800       172
     5.1400       196
     5.2000       164
     5.2600       170
     5.3200       162
     5.3800       184
     5.4400       170
     5.5000       190
     5.5600       200
     5.6200       184
     5.6800       174
     5.7400       182
     5.8000       158
     5.8600       166
     5.9200       192
     5.9800       160
     6.0400       164
     6.1000       144
     6.1600       146
     6.2200       190
     6.2800       162
     6.3400       154
     6.4000       176
     6.4600       130
     6.5200       146
     6.5800       138
     6.6400       146
     6.7000       134
     6.7600       134
     6.8200       124
     6.8800       124
     6.9400       134
     7.0000       152
     7.0600       146
     7.1200       158
     7.1800       132
     7.2400       118
     7.3000       110
     7.3600       126
     7.4200       122
     7.4800       114
     7.5400       112
     7.6000       126
     7.6600       120
     7.7200       124
     7.7800       130
     7.8400       132
     7.9000       134
     7.9600       140
     8.0200       118
     8.0800       132
     8.1400       132
     8.2000       142
     8.2600       150
     8.3200       156
     8.3800       158
     8.4400       152
     8.5000       134
     8.5600       146
     8.6200       196
     8.6800       222
     8.7400       276
     8.8000       384
     8.8600       272
     8.9200       178
     8.9800       150
     9.0400       122
     9.1000       132
     9.1600       142
     9.2200       114
     9.2800       124
     9.3400       112
     9.4000       114
     9.4600       112
     9.5200       132
     9.5800       104
     9.6400       126
     9.7000       124
     9.7600       108
     9.8200       114
     9.8800        88
     9.9400       108
    10.0000       112
    10.0600       120
    10.1200       108
    10.1800       104
    10.2400        86
    10.3000        98
    10.3600       100
    10.4200       100
    10.4800       116
    10.5400       128
    10.6000       108
    10.6600       102
    10.7200       100
    10.7800       126
    10.8400       100
    10.9000       134
    10.9600       108
    11.0200       110
    11.0800        96
    11.1400       122
    11.2000       120
    11.2600       128
    11.3200       120
    11.3800       118
    11.4400       116
    11.5000       120
    11.5600       152
    11.6200       166
    11.6800       198
    11.7400       224
    11.8000       282
    11.8600       322
    11.9200       478
    11.9800       652
    12.0400       816
    12.1000      1144
    12.1600      1770
    12.2200      2728
    12.2800      4266
    12.3400      3856
    12.4000      1736
    12.4600       676
    12.5200       352
    12.5800       240
    12.6400       214
    12.7000       144
    12.7600       110
    12.8200        92
    12.8800        88
    12.9400        80
    13.0000        86
    13.0600        82
    13.1200        94
    13.1800        78
    13.2400        76
    13.3000        60
    13.3600        66
    13.4200        64
    13.4800        80
    13.5400        82
    13.6000        66
    13.6600        62
    13.7200        74
    13.7800        56
    13.8400        72
    13.9000        60
    13.9600        74
    14.0200        64
    14.0800        54
    14.1400        70
    14.2000        68
    14.2600        66
    14.3200        60
    14.3800        64
    14.4400        62
    14.5000        54
    14.5600        50
    14.6200        64
    14.6800        72
    14.7400        56
    14.8000        62
    14.8600        62
    14.9200        72
    14.9800        56
    15.0400        70
    15.1000        72
    15.1600        62
    15.2200        56
    15.2800        54
    15.3400        58
    15.4000        72
    15.4600        52
    15.5200        62
    15.5800        58
    15.6400        62
    15.7000        54
    15.7600        54
    15.8200        70
    15.8800        52
    15.9400        62
    16.0000        48
    16.0600        48
    16.1200        54
    16.1800        56
    16.2400        54
    16.3000        58
    16.3600        48
    16.4200        62
    16.4800        54
    16.5400        58
    16.6000        56
    16.6600        54
    16.7200        56
    16.7800        46
    16.8400        56
    16.9000        44
    16.9600        60
    17.0200        46
    17.0800        60
    17.1400        52
    17.2000        64
    17.2600        64
    17.3200        70
    17.3800        58
    17.4400        72
    17.5000        78
    17.5600        98
    17.6200       122
    17.6800       134
    17.7400       156
    17.8000        96
    17.8600        84
    17.9200        66
    17.9800        48
    18.0400        54
    18.1000        72
    18.1600        46
    18.2200        78
    18.2800        54
    18.3400        48
    18.4000        58
    18.4600        50
    18.5200        52
    18.5800        74
    18.6400        58
    18.7000        46
    18.7600        62
    18.8200        46
    18.8800        64
    18.9400        50
    19.0000        62
    19.0600        62
    19.1200        66
    19.1800        50
    19.2400        52
    19.3000        66
    19.3600        66
    19.4200        62
    19.4800        74
    19.5400        84
    19.6000       110
    19.6600       150
    19.7200       224
    19.7800       224
    19.8400       242
    19.9000       214
    19.9600       176
    20.0200       170
    20.0800       174
    20.1400       232
    20.2000       304
    20.2600       310
    20.3200       284
    20.3800       254
    20.4400       200
    20.5000       144
    20.5600       166
    20.6200       158
    20.6800       180
    20.7400       154
    20.8000       154
    20.8600       180
    20.9200       168
    20.9800       222
    21.0400       230
    21.1000       288
    21.1600       334
    21.2200       330
    21.2800       248
    21.3400       250
    21.4000       224
    21.4600       210
    21.5200       162
    21.5800       134
    21.6400       126
    21.7000       132
    21.7600       136
    21.8200       124
    21.8800       116
    21.9400       112
    22.0000       108
    22.0600       110
    22.1200       126
    22.1800       120
    22.2400       136
    22.3000       136
    22.3600       112
    22.4200       118
    22.4800       108
    22.5400       124
    22.6000       116
    22.6600       126
    22.7200       144
    22.7800       146
    22.8400       168
    22.9000       198
    22.9600       222
    23.0200       230
    23.0800       198
    23.1400       192
    23.2000       136
    23.2600       140
    23.3200       128
    23.3800        94
    23.4400       120
    23.5000       128
    23.5600       156
    23.6200       158
    23.6800       204
    23.7400       202
    23.8000       138
    23.8600       148
    23.9200       120
    23.9800       106
    24.0400       148
    24.1000       136
    24.1600       158
    24.2200       172
    24.2800       166
    24.3400       212
    24.4000       288
    24.4600       418
    24.5200       596
    24.5800       920
    24.6400      1546
    24.7000      2636
    24.7600      4014
    24.8200      4586
    24.8800      3192
    24.9400      1432
    25.0000       674
    25.0600       404
    25.1200       306
    25.1800       210
    25.2400       198
    25.3000       196
    25.3600       164
    25.4200       158
    25.4800       144
    25.5400       108
    25.6000       130
    25.6600       106
    25.7200       102
    25.7800        98
    25.8400       122
    25.9000       144
    25.9600       152
    26.0200       104
    26.0800       176
    26.1400       162
    26.2000       184
    26.2600       200
    26.3200       232
    26.3800       204
    26.4400       198
    26.5000       244
    26.5600       276
    26.6200       376
    26.6800       372
    26.7400       310
    26.8000       208
    26.8600       132
    26.9200       110
    26.9800       102
    27.0400        82
    27.1000        94
    27.1600        66
    27.2200        56
    27.2800        66
    27.3400        88
    27.4000        92
    27.4600        62
    27.5200        60
    27.5800        78
    27.6400        80
    27.7000        98
    27.7600        80
    27.8200        80
    27.8800        74
    27.9400        78
    28.0000        74
    28.0600        68
    28.1200        88
    28.1800        98
    28.2400        92
    28.3000        86
    28.3600        68
    28.4200        66
    28.4800        90
    28.5400        90
    28.6000       100
    28.6600       106
    28.7200        94
    28.7800        82
    28.8400        58
    28.9000        60
    28.9600        60
    29.0200        58
    29.0800        58
    29.1400        58
    29.2000        48
    29.2600        66
    29.3200        56
    29.3800        50
    29.4400        42
    29.5000        52
    29.5600        74
    29.6200        66
    29.6800        70
    29.7400        68
    29.8000        84
    29.8600        74
    29.9200        64
    29.9800        54
    30.0400        54
    30.1000        58
    30.1600        54
    30.2200        70
    30.2800        52
    30.3400        46
    30.4000        50
    30.4600        30
    30.5200        36
    30.5800        44
    30.6400        46
    30.7000        50
    30.7600        48
    30.8200        50
    30.8800        54
    30.9400        60
    31.0000        70
    31.0600        74
    31.1200        62
    31.1800        62
    31.2400        60
    31.3000        68
    31.3600        46
    31.4200        68
    31.4800        64
    31.5400        52
    31.6000        42
    31.6600        44
    31.7200        56
    31.7800        52
    31.8400        64
    31.9000        58
    31.9600        72
    32.0200        62
    32.0800        60
    32.1400        68
    32.2000        72
    32.2600        80
    32.3200        96
    32.3800       104
    32.4400        82
    32.5000        90
    32.5600        70
    32.6200        68
    32.6800        58
    32.7400        54
    32.8000        42
    32.8600        34
    32.9200        42
    32.9800        52
    33.0400        48
    33.1000        42
    33.1600        38
    33.2200        54
    33.2800        38
    33.3400        52
    33.4000        54
    33.4600        60
    33.5200        50
    33.5800        56
    33.6400        40
    33.7000        54
    33.7600        58
    33.8200        46
    33.8800        46
    33.9400        44
    34.0000        42
    34.0600        38
    34.1200        48
    34.1800        48
    34.2400        52
    34.3000        48
    34.3600        46
    34.4200        64
    34.4800        76
    34.5400        74
    34.6000        98
    34.6600        82
    34.7200       124
    34.7800       192
    34.8400       234
    34.9000       238
    34.9600       226
    35.0200       186
    35.0800       192
    35.1400       134
    35.2000       154
    35.2600       148
    35.3200       202
    35.3800       186
    35.4400       166
    35.5000       132
    35.5600       154
    35.6200       172
    35.6800       176
    35.7400       232
    35.8000       256
    35.8600       322
    35.9200       306
    35.9800       234
    36.0400       178
    36.1000       136
    36.1600        72
    36.2200        78
    36.2800        56
    36.3400        64
    36.4000        84
    36.4600        80
    36.5200        58
    36.5800        50
    36.6400        56
    36.7000        52
    36.7600        48
    36.8200        42
    36.8800        40
    36.9400        50
    37.0000        66
    37.0600        52
    37.1200        48
    37.1800        66
    37.2400        74
    37.3000        80
    37.3600       122
    37.4200       168
    37.4800       278
    37.5400       392
    37.6000       532
    37.6600       578
    37.7200       422
    37.7800       260
    37.8400       140
    37.9000       108
    37.9600       114
    38.0200       132
    38.0800       152
    38.1400       230
    38.2000       346
    38.2600       410
    38.3200       506
    38.3800       444
    38.4400       420
    38.5000       322
    38.5600       250
    38.6200       166
    38.6800       144
    38.7400       124
    38.8000       122
    38.8600       106
    38.9200       146
    38.9800       178
    39.0400       228
    39.1000       268
    39.1600       322
    39.2200       286
    39.2800       256
    39.3400       182
    39.4000       138
    39.4600        84
    39.5200        66
    39.5800        56
    39.6400        54
    39.7000        42
    39.7600        62
    39.8200        74
    39.8800        70
    39.9400        82
    40.0000        74
    40.0600        80
    40.1200        54
    40.1800        56
    40.2400        52
    40.3000        68
    40.3600        66
    40.4200        48
    40.4800        68
    40.5400        52
    40.6000        64
    40.6600        66
    40.7200        58
    40.7800        54
    40.8400        58
    40.9000        84
    40.9600        82
    41.0200        80
    41.0800        80
    41.1400        68
    41.2000        74
    41.2600        88
    41.3200        52
    41.3800        56
    41.4400        64
    41.5000        54
    41.5600        60
    41.6200        36
    41.6800        50
    41.7400        40
    41.8000        46
    41.8600        50
    41.9200        52
    41.9800        66
    42.0400        48
    42.1000        54
    42.1600        56
    42.2200        84
    42.2800        86
    42.3400        56
    42.4000        66
    42.4600        68
    42.5200        66
    42.5800        48
    42.6400        50
    42.7000        42
    42.7600        32
    42.8200        54
    42.8800        40
    42.9400        38
    43.0000        46
    43.0600        28
    43.1200        36
    43.1800        40
    43.2400        40
    43.3000        38
    43.3600        42
    43.4200        36
    43.4800        36
    43.5400        48
    43.6000        58
    43.6600        46
    43.7200        40
    43.7800        38
    43.8400        50
    43.9000        40
    43.9600        42
    44.0200        32
    44.0800        38
    44.1400        38
    44.2000        44
    44.2600        48
    44.3200        34
    44.3800        42
    44.4400        38
    44.5000        44
    44.5600        36
    44.6200        48
    44.6800        42
    44.7400        46
    44.8000        48
    44.8600        52
    44.9200        62
    44.9800        68
    45.0400       100
    45.1000       120
    45.1600       154
    45.2200       226
    45.2800       248
    45.3400       284
    45.4000       276
    45.4600       234
    45.5200       230
    45.5800       204
    45.6400       164
    45.7000       138
    45.7600       102
    45.8200        92
    45.8800        94
    45.9400        74
    46.0000        68
    46.0600        72
    46.1200        42
    46.1800        62
    46.2400        60
    46.3000        70
    46.3600        78
    46.4200        92
    46.4800        88
    46.5400        76
    46.6000       104
    46.6600        88
    46.7200       136
    46.7800       112
    46.8400        96
    46.9000        92
    46.9600        60
    47.0200        64
    47.0800        72
    47.1400        72
    47.2000        68
    47.2600        68
    47.3200        60
    47.3800        38
    47.4400        62
    47.5000        52
    47.5600        62
    47.6200        54
    47.6800        86
    47.7400        70
    47.8000        94
    47.8600        98
    47.9200        84
    47.9800        66
    48.0400        58
    48.1000        48
    48.1600        48
    48.2200        52
    48.2800        44
    48.3400        50
    48.4000        56
    48.4600        56
    48.5200        60
    48.5800        60
    48.6400        58
    48.7000        46
    48.7600        58
    48.8200        40
    48.8800        44
    48.9400        48
    49.0000        42
    49.0600        72
    49.1200        60
    49.1800        64
    49.2400        98
    49.3000       102
    49.3600        94
    49.4200        82
    49.4800       106
    49.5400        78
    49.6000        66
    49.6600        64
    49.7200        48
    49.7800        50
    49.8400        60
    49.9000        38
    49.9600        34
    50.0200        44
    50.0800        48
    50.1400        50
    50.2000        48
    50.2600        58
    50.3200        50
    50.3800        50
    50.4400        44
    50.5000        44
    50.5600        64
    50.6200        50
    50.6800        64
    50.7400        88
    50.8000       110
    50.8600       182
    50.9200       284
    50.9800       290
    51.0400       212
    51.1000       164
    51.1600       126
    51.2200        60
    51.2800        58
    51.3400        48
    51.4000        46
    51.4600        44
    51.5200        34
    51.5800        46
    51.6400        28
    51.7000        30
    51.7600        30
    51.8200        42
    51.8800        32
    51.9400        40
    52.0000        40
    52.0600        34
    52.1200        40
    52.1800        40
    52.2400        44
    52.3000        46
    52.3600        42
    52.4200        32
    52.4800        48
    52.5400        42
    52.6000        44
    52.6600        42
    52.7200        28
    52.7800        54
    52.8400        34
    52.9000        46
    52.9600        48
    53.0200        46
    53.0800        36
    53.1400        42
    53.2000        46
    53.2600        44
    53.3200        54
    53.3800        58
    53.4400        66
    53.5000        60
    53.5600        50
    53.6200        46
    53.6800        44
    53.7400        58
    53.8000        56
    53.8600        36
    53.9200        34
    53.9800        48
    54.0400        54
    54.1000        58
    54.1600        70
    54.2200        96
    54.2800       110
    54.3400        98
    54.4000        92
    54.4600        76
    54.5200        98
    54.5800       100
    54.6400       114
    54.7000       114
    54.7600       148
    54.8200       184
    54.8800       226
    54.9400       236
    55.0000       252
    55.0600       292
    55.1200       270
    55.1800       292
    55.2400       254
    55.3000       234
    55.3600       190
    55.4200       144
    55.4800       140
    55.5400       136
    55.6000       140
    55.6600       118
    55.7200       118
    55.7800       120
    55.8400        92
    55.9000       100
    55.9600        78
    56.0200        92
    56.0800        90
    56.1400        84
    56.2000        72
    56.2600        88
    56.3200        92
    56.3800        94
    56.4400       106
    56.5000       132
    56.5600       156
    56.6200       172
    56.6800       180
    56.7400       176
    56.8000       156
    56.8600       156
    56.9200       138
    56.9800       102
    57.0400       102
    57.1000        70
    57.1600        74
    57.2200        40
    57.2800        66
    57.3400        76
    57.4000        54
    57.4600        58
    57.5200        56
    57.5800        54
    57.6400        44
    57.7000        48
    57.7600        56
    57.8200        70
    57.8800        72
    57.9400       108
    58.0000        96
    58.0600        96
    58.1200       102
    58.1800        86
    58.2400        86
    58.3000        88
    58.3600        70
    58.4200        58
    58.4800        44
    58.5400        58
    58.6000        38
    58.6600        52
    58.7200        46
    58.7800        48
    58.8400        40
    58.9000        68
    58.9600        58
    59.0200        50
    59.0800        48
    59.1400        52
    59.2000        54
    59.2600        68
    59.3200        58
    59.3800        92
    59.4400        90
    59.5000        84
    59.5600        78
    59.6200       100
    59.6800       118
    59.7400       122
    59.8000       120
    59.8600       122
    59.9200       122
    59.9800       132
    60.0400       124
    60.1000       126
    60.1600       100
    60.2200        90
    60.2800        76
    60.3400        70
    60.4000        66
    60.4600        66
    60.5200        64
    60.5800        68
    60.6400        50
    60.7000        70
    60.7600        58
    60.8200        52
    60.8800        46
    60.9400        42
    61.0000        56
    61.0600        54
    61.1200        52
    61.1800        46
    61.2400        60
    61.3000        56
    61.3600        58
    61.4200        60
    61.4800        52
    61.5400        62
    61.6000        58
    61.6600        58
    61.7200        54
    61.7800        74
    61.8400        72
    61.9000        80
    61.9600        88
    62.0200       114
    62.0800       126
    62.1400       192
    62.2000       234
    62.2600       232
    62.3200       186
    62.3800       168
    62.4400       134
    62.5000       100
    62.5600        74
    62.6200        52
    62.6800        56
    62.7400        38
    62.8000        54
    62.8600        40
    62.9200        54
    62.9800        52
    63.0400        50
    63.1000        66
    63.1600        68
    63.2200        60
    63.2800        62
    63.3400        58
    63.4000        52
    63.4600        64
    63.5200        58
    63.5800        68
    63.6400        58
    63.7000        94
    63.7600        68
    63.8200        82
    63.8800        64
    63.9400        86
    64.0000        64
    64.0600        82
    64.1200        64
    64.1800        96
    64.2400        76
    64.3000        82
    64.3600        74
    64.4200        66
    64.4800        74
    64.5400        62
    64.6000        52
    64.6600        60
    64.7200        40
    64.7800        58
    64.8400        66
    64.9000        74
    64.9600        76
    65.0000       104