File: sl1/usgs/library06/DESCRIPT/new_xrd_results_to_be_added/Rhonda_Driscoll_xrd_runs/RLO-2127.txt
/////////////////////////////////////////////////////////////////////////////////
/// Profile Data Ascii Dump (XRD)                                             ///
/////////////////////////////////////////////////////////////////////////////////

  Group     : Swayze
  Data      : RLO 2127
  File Name : RLO 2127.RAW

# Profile Datafile
          comment             =
          date & time         = 08-03-11 07:07:41

# Measurement Condition
    X-ray tube
          target              = Cu
          voltage             = 40.0 (kV)
          current             = 30.0 (mA)
    Slits
          divergence slit     = 2.00000 (deg)
          scatter slit        = 2.00000 (deg)
          receiving slit      = 0.15000 (mm)
    Scanning
          drive axis          = Theta-2Theta
          scan range          =    4.000 -   65.000
          scan mode           = Continuous Scan
          scan speed          =   2.0000 (deg/min)
          sampling pitch      =   0.0200 (deg)
          preset time         =   0.60 (sec)

# Data      [ Total No. = 3051 ]
  <2Theta>   <   I   >
     4.0000       222
     4.0600       208
     4.1200       202
     4.1800       240
     4.2400       192
     4.3000       220
     4.3600       210
     4.4200       202
     4.4800       212
     4.5400       194
     4.6000       190
     4.6600       192
     4.7200       182
     4.7800       184
     4.8400       194
     4.9000       180
     4.9600       174
     5.0200       194
     5.0800       204
     5.1400       210
     5.2000       202
     5.2600       204
     5.3200       210
     5.3800       194
     5.4400       222
     5.5000       224
     5.5600       228
     5.6200       220
     5.6800       216
     5.7400       180
     5.8000       254
     5.8600       224
     5.9200       212
     5.9800       192
     6.0400       248
     6.1000       198
     6.1600       234
     6.2200       236
     6.2800       232
     6.3400       232
     6.4000       252
     6.4600       224
     6.5200       198
     6.5800       220
     6.6400       224
     6.7000       234
     6.7600       202
     6.8200       196
     6.8800       196
     6.9400       200
     7.0000       198
     7.0600       194
     7.1200       196
     7.1800       192
     7.2400       180
     7.3000       164
     7.3600       144
     7.4200       170
     7.4800       150
     7.5400       164
     7.6000       132
     7.6600       158
     7.7200       144
     7.7800       130
     7.8400       138
     7.9000       140
     7.9600       120
     8.0200       142
     8.0800       134
     8.1400       124
     8.2000       128
     8.2600       130
     8.3200       134
     8.3800       158
     8.4400       158
     8.5000       154
     8.5600       142
     8.6200       142
     8.6800       176
     8.7400       180
     8.8000       204
     8.8600       216
     8.9200       152
     8.9800       146
     9.0400       130
     9.1000       120
     9.1600       124
     9.2200       116
     9.2800       116
     9.3400       118
     9.4000       112
     9.4600       128
     9.5200       146
     9.5800       156
     9.6400       116
     9.7000       118
     9.7600       122
     9.8200       122
     9.8800       136
     9.9400       104
    10.0000       118
    10.0600       122
    10.1200       114
    10.1800       116
    10.2400       102
    10.3000       120
    10.3600       136
    10.4200       116
    10.4800       104
    10.5400       116
    10.6000       120
    10.6600       126
    10.7200        98
    10.7800       118
    10.8400       108
    10.9000       106
    10.9600       104
    11.0200       108
    11.0800       108
    11.1400        86
    11.2000       104
    11.2600       118
    11.3200       126
    11.3800       130
    11.4400       130
    11.5000       128
    11.5600       140
    11.6200       136
    11.6800       138
    11.7400       172
    11.8000       182
    11.8600       242
    11.9200       258
    11.9800       334
    12.0400       382
    12.1000       500
    12.1600       662
    12.2200       836
    12.2800      1080
    12.3400      1316
    12.4000      1154
    12.4600       610
    12.5200       322
    12.5800       202
    12.6400       178
    12.7000       172
    12.7600       124
    12.8200       122
    12.8800       104
    12.9400       106
    13.0000        92
    13.0600        86
    13.1200        88
    13.1800        86
    13.2400        88
    13.3000        94
    13.3600        96
    13.4200        90
    13.4800        84
    13.5400        82
    13.6000       110
    13.6600        70
    13.7200        66
    13.7800        72
    13.8400        74
    13.9000       100
    13.9600        82
    14.0200        70
    14.0800        66
    14.1400        66
    14.2000        64
    14.2600        92
    14.3200        68
    14.3800        52
    14.4400        66
    14.5000        58
    14.5600        54
    14.6200        62
    14.6800        68
    14.7400        58
    14.8000        72
    14.8600        70
    14.9200        62
    14.9800        86
    15.0400        64
    15.1000        62
    15.1600        72
    15.2200        70
    15.2800        46
    15.3400        58
    15.4000        64
    15.4600        48
    15.5200        60
    15.5800        54
    15.6400        72
    15.7000        56
    15.7600        54
    15.8200        58
    15.8800        64
    15.9400        58
    16.0000        68
    16.0600        46
    16.1200        50
    16.1800        68
    16.2400        52
    16.3000        64
    16.3600        52
    16.4200        52
    16.4800        60
    16.5400        60
    16.6000        60
    16.6600        68
    16.7200        56
    16.7800        58
    16.8400        50
    16.9000        64
    16.9600        52
    17.0200        58
    17.0800        68
    17.1400        50
    17.2000        62
    17.2600        60
    17.3200        54
    17.3800        64
    17.4400        64
    17.5000        86
    17.5600        78
    17.6200        72
    17.6800        84
    17.7400        92
    17.8000        96
    17.8600        64
    17.9200        58
    17.9800        64
    18.0400        60
    18.1000        54
    18.1600        50
    18.2200        60
    18.2800        56
    18.3400        56
    18.4000        50
    18.4600        52
    18.5200        56
    18.5800        48
    18.6400        64
    18.7000        56
    18.7600        70
    18.8200        48
    18.8800        50
    18.9400        60
    19.0000        60
    19.0600        60
    19.1200        60
    19.1800        62
    19.2400        66
    19.3000        64
    19.3600        78
    19.4200        70
    19.4800        86
    19.5400        90
    19.6000       110
    19.6600       142
    19.7200       162
    19.7800       204
    19.8400       260
    19.9000       234
    19.9600       184
    20.0200       164
    20.0800       178
    20.1400       188
    20.2000       204
    20.2600       250
    20.3200       244
    20.3800       240
    20.4400       232
    20.5000       172
    20.5600       170
    20.6200       184
    20.6800       164
    20.7400       180
    20.8000       202
    20.8600       236
    20.9200       274
    20.9800       276
    21.0400       220
    21.1000       204
    21.1600       226
    21.2200       262
    21.2800       232
    21.3400       228
    21.4000       204
    21.4600       192
    21.5200       188
    21.5800       160
    21.6400       148
    21.7000       110
    21.7600       120
    21.8200       118
    21.8800       110
    21.9400       126
    22.0000       118
    22.0600       128
    22.1200       102
    22.1800       134
    22.2400       124
    22.3000       122
    22.3600       146
    22.4200       162
    22.4800       174
    22.5400       146
    22.6000       120
    22.6600       130
    22.7200       132
    22.7800       146
    22.8400       146
    22.9000       184
    22.9600       174
    23.0200       180
    23.0800       212
    23.1400       204
    23.2000       186
    23.2600       178
    23.3200       234
    23.3800       234
    23.4400       268
    23.5000       220
    23.5600       188
    23.6200       186
    23.6800       186
    23.7400       182
    23.8000       170
    23.8600       152
    23.9200       132
    23.9800       150
    24.0400       144
    24.1000       122
    24.1600       110
    24.2200       134
    24.2800       152
    24.3400       176
    24.4000       202
    24.4600       246
    24.5200       320
    24.5800       422
    24.6400       574
    24.7000       814
    24.7600      1142
    24.8200      1468
    24.8800      1474
    24.9400      1030
    25.0000       652
    25.0600       422
    25.1200       276
    25.1800       238
    25.2400       192
    25.3000       174
    25.3600       170
    25.4200       160
    25.4800       182
    25.5400       174
    25.6000       212
    25.6600       196
    25.7200       130
    25.7800       158
    25.8400       124
    25.9000       128
    25.9600        90
    26.0200       134
    26.0800       122
    26.1400       132
    26.2000       170
    26.2600       154
    26.3200       220
    26.3800       200
    26.4400       176
    26.5000       226
    26.5600       276
    26.6200       322
    26.6800       384
    26.7400       422
    26.8000       364
    26.8600       338
    26.9200       270
    26.9800       232
    27.0400       222
    27.1000       204
    27.1600       204
    27.2200       140
    27.2800       174
    27.3400       194
    27.4000       228
    27.4600       236
    27.5200       242
    27.5800       208
    27.6400       164
    27.7000       132
    27.7600       126
    27.8200       114
    27.8800       108
    27.9400        92
    28.0000        86
    28.0600        90
    28.1200        80
    28.1800        88
    28.2400        82
    28.3000        96
    28.3600       116
    28.4200        88
    28.4800        92
    28.5400        82
    28.6000        94
    28.6600        94
    28.7200        84
    28.7800        68
    28.8400        76
    28.9000        64
    28.9600        62
    29.0200        62
    29.0800        74
    29.1400        44
    29.2000        68
    29.2600        70
    29.3200        56
    29.3800        62
    29.4400        78
    29.5000        76
    29.5600       116
    29.6200       142
    29.6800       158
    29.7400       156
    29.8000       186
    29.8600       170
    29.9200       128
    29.9800       100
    30.0400        74
    30.1000        94
    30.1600        84
    30.2200        66
    30.2800        80
    30.3400        92
    30.4000        66
    30.4600        68
    30.5200        78
    30.5800        84
    30.6400       114
    30.7000       100
    30.7600       122
    30.8200       128
    30.8800        90
    30.9400        76
    31.0000        74
    31.0600        76
    31.1200        74
    31.1800        76
    31.2400        76
    31.3000        72
    31.3600        62
    31.4200        52
    31.4800        66
    31.5400        52
    31.6000        66
    31.6600        52
    31.7200        54
    31.7800        80
    31.8400        70
    31.9000        82
    31.9600        74
    32.0200        68
    32.0800        84
    32.1400        76
    32.2000        86
    32.2600        90
    32.3200        92
    32.3800        92
    32.4400        76
    32.5000        78
    32.5600        68
    32.6200        52
    32.6800        54
    32.7400        50
    32.8000        68
    32.8600        58
    32.9200        50
    32.9800        60
    33.0400        44
    33.1000        50
    33.1600        56
    33.2200        52
    33.2800        40
    33.3400        64
    33.4000        44
    33.4600        46
    33.5200        56
    33.5800        38
    33.6400        60
    33.7000        48
    33.7600        48
    33.8200        40
    33.8800        46
    33.9400        40
    34.0000        42
    34.0600        56
    34.1200        54
    34.1800        54
    34.2400        82
    34.3000        82
    34.3600       100
    34.4200        84
    34.4800       126
    34.5400       126
    34.6000       128
    34.6600       172
    34.7200       160
    34.7800       178
    34.8400       212
    34.9000       228
    34.9600       278
    35.0200       254
    35.0800       220
    35.1400       202
    35.2000       160
    35.2600       158
    35.3200       170
    35.3800       190
    35.4400       168
    35.5000       190
    35.5600       150
    35.6200       178
    35.6800       124
    35.7400       158
    35.8000       190
    35.8600       216
    35.9200       224
    35.9800       208
    36.0400       172
    36.1000       138
    36.1600       110
    36.2200        94
    36.2800        90
    36.3400        86
    36.4000        76
    36.4600        68
    36.5200        68
    36.5800        70
    36.6400        72
    36.7000        72
    36.7600        54
    36.8200        76
    36.8800        68
    36.9400        70
    37.0000        92
    37.0600        96
    37.1200        90
    37.1800        82
    37.2400        92
    37.3000       108
    37.3600       112
    37.4200       124
    37.4800       152
    37.5400       154
    37.6000       202
    37.6600       270
    37.7200       236
    37.7800       230
    37.8400       152
    37.9000       140
    37.9600       120
    38.0200       118
    38.0800       158
    38.1400       146
    38.2000       196
    38.2600       254
    38.3200       286
    38.3800       316
    38.4400       310
    38.5000       278
    38.5600       252
    38.6200       210
    38.6800       140
    38.7400       162
    38.8000       126
    38.8600       122
    38.9200       124
    38.9800       138
    39.0400       136
    39.1000       174
    39.1600       174
    39.2200       212
    39.2800       210
    39.3400       170
    39.4000       120
    39.4600        94
    39.5200        68
    39.5800        82
    39.6400        68
    39.7000        78
    39.7600        54
    39.8200        74
    39.8800        70
    39.9400        72
    40.0000        64
    40.0600        80
    40.1200        70
    40.1800        64
    40.2400        58
    40.3000        76
    40.3600        62
    40.4200        60
    40.4800        58
    40.5400        62
    40.6000        58
    40.6600        76
    40.7200        70
    40.7800        74
    40.8400        68
    40.9000        72
    40.9600        74
    41.0200        88
    41.0800        72
    41.1400        74
    41.2000        74
    41.2600        76
    41.3200        72
    41.3800       100
    41.4400        72
    41.5000        82
    41.5600        84
    41.6200        86
    41.6800        90
    41.7400        90
    41.8000        76
    41.8600        68
    41.9200        80
    41.9800        68
    42.0400        58
    42.1000        70
    42.1600        48
    42.2200        76
    42.2800        76
    42.3400        78
    42.4000        82
    42.4600        82
    42.5200        74
    42.5800        64
    42.6400        70
    42.7000        52
    42.7600        66
    42.8200        54
    42.8800        40
    42.9400        46
    43.0000        42
    43.0600        48
    43.1200        56
    43.1800        50
    43.2400        62
    43.3000        42
    43.3600        36
    43.4200        48
    43.4800        48
    43.5400        52
    43.6000        50
    43.6600        56
    43.7200        68
    43.7800        60
    43.8400        70
    43.9000        44
    43.9600        64
    44.0200        62
    44.0800        52
    44.1400        50
    44.2000        50
    44.2600        54
    44.3200        48
    44.3800        36
    44.4400        54
    44.5000        54
    44.5600        42
    44.6200        50
    44.6800        54
    44.7400        66
    44.8000        54
    44.8600        88
    44.9200        58
    44.9800        62
    45.0400        96
    45.1000        82
    45.1600       134
    45.2200       120
    45.2800       130
    45.3400       132
    45.4000       186
    45.4600       154
    45.5200       128
    45.5800       132
    45.6400       138
    45.7000       130
    45.7600       120
    45.8200       110
    45.8800       120
    45.9400       102
    46.0000        98
    46.0600        76
    46.1200        68
    46.1800        68
    46.2400        72
    46.3000        78
    46.3600        50
    46.4200        58
    46.4800        78
    46.5400        92
    46.6000        64
    46.6600        78
    46.7200        78
    46.7800       102
    46.8400        94
    46.9000       116
    46.9600       114
    47.0200        74
    47.0800        88
    47.1400        70
    47.2000        66
    47.2600        56
    47.3200        70
    47.3800        58
    47.4400        74
    47.5000        76
    47.5600        70
    47.6200        36
    47.6800        56
    47.7400        62
    47.8000        82
    47.8600        62
    47.9200        58
    47.9800        48
    48.0400        68
    48.1000        56
    48.1600        66
    48.2200        56
    48.2800        72
    48.3400        66
    48.4000        64
    48.4600        46
    48.5200        56
    48.5800        56
    48.6400        50
    48.7000        64
    48.7600        56
    48.8200        56
    48.8800        54
    48.9400        62
    49.0000        50
    49.0600        68
    49.1200        64
    49.1800        76
    49.2400        80
    49.3000        84
    49.3600        88
    49.4200        80
    49.4800        86
    49.5400        78
    49.6000        62
    49.6600        58
    49.7200        66
    49.7800        54
    49.8400        40
    49.9000        54
    49.9600        42
    50.0200        50
    50.0800        40
    50.1400        68
    50.2000        56
    50.2600        62
    50.3200        52
    50.3800        52
    50.4400        66
    50.5000        94
    50.5600        74
    50.6200        84
    50.6800        96
    50.7400        94
    50.8000       100
    50.8600       122
    50.9200       114
    50.9800       134
    51.0400       122
    51.1000       114
    51.1600       106
    51.2200        84
    51.2800        66
    51.3400        60
    51.4000        50
    51.4600        40
    51.5200        56
    51.5800        50
    51.6400        42
    51.7000        36
    51.7600        26
    51.8200        36
    51.8800        42
    51.9400        34
    52.0000        44
    52.0600        42
    52.1200        42
    52.1800        40
    52.2400        44
    52.3000        60
    52.3600        54
    52.4200        42
    52.4800        52
    52.5400        50
    52.6000        44
    52.6600        54
    52.7200        44
    52.7800        40
    52.8400        52
    52.9000        52
    52.9600        40
    53.0200        40
    53.0800        46
    53.1400        50
    53.2000        38
    53.2600        42
    53.3200        54
    53.3800        50
    53.4400        34
    53.5000        40
    53.5600        62
    53.6200        54
    53.6800        50
    53.7400        60
    53.8000        52
    53.8600        50
    53.9200        56
    53.9800        58
    54.0400        70
    54.1000        58
    54.1600        86
    54.2200        80
    54.2800        84
    54.3400        88
    54.4000       108
    54.4600       102
    54.5200        86
    54.5800        90
    54.6400       104
    54.7000       110
    54.7600       126
    54.8200       138
    54.8800       150
    54.9400       164
    55.0000       158
    55.0600       162
    55.1200       168
    55.1800       170
    55.2400       154
    55.3000       152
    55.3600       166
    55.4200       122
    55.4800       130
    55.5400        86
    55.6000       134
    55.6600       106
    55.7200       112
    55.7800       112
    55.8400        96
    55.9000       104
    55.9600        98
    56.0200        68
    56.0800        90
    56.1400        86
    56.2000        96
    56.2600        80
    56.3200        98
    56.3800        86
    56.4400        84
    56.5000       102
    56.5600       110
    56.6200       104
    56.6800       108
    56.7400       106
    56.8000       104
    56.8600       104
    56.9200       104
    56.9800       104
    57.0400        70
    57.1000        62
    57.1600        76
    57.2200        58
    57.2800        72
    57.3400        62
    57.4000        64
    57.4600        60
    57.5200        60
    57.5800        46
    57.6400        52
    57.7000        64
    57.7600        60
    57.8200        64
    57.8800        76
    57.9400        54
    58.0000        72
    58.0600        64
    58.1200        80
    58.1800        88
    58.2400        78
    58.3000        78
    58.3600        64
    58.4200        58
    58.4800        56
    58.5400        68
    58.6000        60
    58.6600        58
    58.7200        50
    58.7800        52
    58.8400        66
    58.9000        44
    58.9600        60
    59.0200        60
    59.0800        52
    59.1400        58
    59.2000        56
    59.2600        54
    59.3200        54
    59.3800        68
    59.4400        56
    59.5000        80
    59.5600        88
    59.6200        86
    59.6800        60
    59.7400        92
    59.8000       102
    59.8600        66
    59.9200        82
    59.9800        78
    60.0400        94
    60.1000        92
    60.1600        98
    60.2200        70
    60.2800        84
    60.3400        70
    60.4000        74
    60.4600        74
    60.5200        62
    60.5800        80
    60.6400        62
    60.7000        70
    60.7600        62
    60.8200        64
    60.8800        74
    60.9400        68
    61.0000        62
    61.0600        50
    61.1200        68
    61.1800        52
    61.2400        60
    61.3000        50
    61.3600        62
    61.4200        90
    61.4800        78
    61.5400        66
    61.6000        86
    61.6600        80
    61.7200        86
    61.7800        98
    61.8400        92
    61.9000       106
    61.9600        92
    62.0200        94
    62.0800       142
    62.1400       148
    62.2000       170
    62.2600       174
    62.3200       166
    62.3800       164
    62.4400       130
    62.5000       124
    62.5600        98
    62.6200        84
    62.6800        64
    62.7400        78
    62.8000        48
    62.8600        56
    62.9200        68
    62.9800        60
    63.0400        52
    63.1000        54
    63.1600        68
    63.2200        58
    63.2800        58
    63.3400        58
    63.4000        78
    63.4600        60
    63.5200        78
    63.5800        60
    63.6400        76
    63.7000        62
    63.7600        76
    63.8200        86
    63.8800        72
    63.9400        76
    64.0000        84
    64.0600        88
    64.1200        74
    64.1800        78
    64.2400        60
    64.3000        92
    64.3600        60
    64.4200        60
    64.4800        68
    64.5400        58
    64.6000        68
    64.6600        56
    64.7200        66
    64.7800        64
    64.8400        60
    64.9000        64
    64.9600        86
    65.0000        66