File: sl1/usgs/library06/DESCRIPT/new_xrd_results_to_be_added/Rhonda_Driscoll_xrd_runs/RLO-2125.txt
/////////////////////////////////////////////////////////////////////////////////
/// Profile Data Ascii Dump (XRD)                                             ///
/////////////////////////////////////////////////////////////////////////////////

  Group     : Swayze
  Data      : RLO 2125
  File Name : RLO 2125.RAW

# Profile Datafile
          comment             =
          date & time         = 08-03-11 07:38:40

# Measurement Condition
    X-ray tube
          target              = Cu
          voltage             = 40.0 (kV)
          current             = 30.0 (mA)
    Slits
          divergence slit     = 2.00000 (deg)
          scatter slit        = 2.00000 (deg)
          receiving slit      = 0.15000 (mm)
    Scanning
          drive axis          = Theta-2Theta
          scan range          =    4.000 -   65.000
          scan mode           = Continuous Scan
          scan speed          =   2.0000 (deg/min)
          sampling pitch      =   0.0200 (deg)
          preset time         =   0.60 (sec)

# Data      [ Total No. = 3051 ]
  <2Theta>   <   I   >
     4.0000       216
     4.0600       208
     4.1200       206
     4.1800       190
     4.2400       198
     4.3000       214
     4.3600       170
     4.4200       166
     4.4800       198
     4.5400       178
     4.6000       182
     4.6600       206
     4.7200       156
     4.7800       154
     4.8400       166
     4.9000       174
     4.9600       156
     5.0200       184
     5.0800       164
     5.1400       162
     5.2000       172
     5.2600       156
     5.3200       168
     5.3800       190
     5.4400       148
     5.5000       142
     5.5600       170
     5.6200       158
     5.6800       162
     5.7400       200
     5.8000       186
     5.8600       174
     5.9200       160
     5.9800       174
     6.0400       184
     6.1000       148
     6.1600       138
     6.2200       170
     6.2800       154
     6.3400       148
     6.4000       164
     6.4600       142
     6.5200       140
     6.5800       132
     6.6400       150
     6.7000       134
     6.7600       146
     6.8200       138
     6.8800       122
     6.9400       120
     7.0000       112
     7.0600       134
     7.1200       136
     7.1800       128
     7.2400       120
     7.3000       110
     7.3600       112
     7.4200       114
     7.4800       114
     7.5400       132
     7.6000       118
     7.6600       140
     7.7200       126
     7.7800       108
     7.8400       114
     7.9000       124
     7.9600       118
     8.0200        98
     8.0800       142
     8.1400       148
     8.2000       120
     8.2600       136
     8.3200       136
     8.3800       116
     8.4400       134
     8.5000       120
     8.5600       136
     8.6200       154
     8.6800       170
     8.7400       190
     8.8000       218
     8.8600       198
     8.9200       138
     8.9800       124
     9.0400       104
     9.1000       118
     9.1600       128
     9.2200       124
     9.2800       102
     9.3400       146
     9.4000       120
     9.4600       134
     9.5200       122
     9.5800       110
     9.6400        90
     9.7000       104
     9.7600       114
     9.8200       116
     9.8800       128
     9.9400        90
    10.0000       102
    10.0600       122
    10.1200       114
    10.1800       110
    10.2400       124
    10.3000       142
    10.3600       122
    10.4200       108
    10.4800       110
    10.5400       106
    10.6000        98
    10.6600        98
    10.7200       112
    10.7800       100
    10.8400       104
    10.9000       118
    10.9600       108
    11.0200       106
    11.0800       106
    11.1400       106
    11.2000       118
    11.2600       102
    11.3200       136
    11.3800       108
    11.4400       132
    11.5000       134
    11.5600       190
    11.6200       180
    11.6800       206
    11.7400       230
    11.8000       280
    11.8600       382
    11.9200       456
    11.9800       570
    12.0400       778
    12.1000      1096
    12.1600      1570
    12.2200      2204
    12.2800      2614
    12.3400      2070
    12.4000       974
    12.4600       456
    12.5200       284
    12.5800       214
    12.6400       138
    12.7000       136
    12.7600       106
    12.8200        98
    12.8800        88
    12.9400        76
    13.0000        84
    13.0600        74
    13.1200        70
    13.1800        74
    13.2400        84
    13.3000        80
    13.3600        90
    13.4200        80
    13.4800        64
    13.5400        72
    13.6000        72
    13.6600        64
    13.7200        76
    13.7800        56
    13.8400        60
    13.9000        72
    13.9600        52
    14.0200        74
    14.0800        82
    14.1400        54
    14.2000        62
    14.2600        54
    14.3200        64
    14.3800        46
    14.4400        56
    14.5000        50
    14.5600        54
    14.6200        68
    14.6800        58
    14.7400        72
    14.8000        42
    14.8600        66
    14.9200        60
    14.9800        54
    15.0400        68
    15.1000        54
    15.1600        48
    15.2200        54
    15.2800        84
    15.3400        64
    15.4000        68
    15.4600        62
    15.5200        72
    15.5800        58
    15.6400        44
    15.7000        42
    15.7600        58
    15.8200        50
    15.8800        54
    15.9400        52
    16.0000        62
    16.0600        60
    16.1200        50
    16.1800        50
    16.2400        66
    16.3000        70
    16.3600        54
    16.4200        52
    16.4800        48
    16.5400        50
    16.6000        44
    16.6600        60
    16.7200        60
    16.7800        48
    16.8400        46
    16.9000        36
    16.9600        64
    17.0200        52
    17.0800        54
    17.1400        56
    17.2000        54
    17.2600        56
    17.3200        64
    17.3800        52
    17.4400        52
    17.5000        60
    17.5600        66
    17.6200        78
    17.6800        80
    17.7400        68
    17.8000        60
    17.8600        66
    17.9200        46
    17.9800        56
    18.0400        48
    18.1000        48
    18.1600        56
    18.2200        58
    18.2800        54
    18.3400        54
    18.4000        48
    18.4600        54
    18.5200        64
    18.5800        38
    18.6400        58
    18.7000        52
    18.7600        50
    18.8200        48
    18.8800        52
    18.9400        66
    19.0000        54
    19.0600        60
    19.1200        56
    19.1800        48
    19.2400        66
    19.3000        56
    19.3600        68
    19.4200        74
    19.4800        94
    19.5400       100
    19.6000       156
    19.6600       208
    19.7200       322
    19.7800       320
    19.8400       296
    19.9000       270
    19.9600       232
    20.0200       240
    20.0800       270
    20.1400       338
    20.2000       444
    20.2600       462
    20.3200       414
    20.3800       326
    20.4400       264
    20.5000       280
    20.5600       202
    20.6200       224
    20.6800       208
    20.7400       224
    20.8000       220
    20.8600       230
    20.9200       234
    20.9800       266
    21.0400       320
    21.1000       390
    21.1600       458
    21.2200       378
    21.2800       356
    21.3400       352
    21.4000       286
    21.4600       262
    21.5200       226
    21.5800       176
    21.6400       154
    21.7000       166
    21.7600       146
    21.8200       156
    21.8800       168
    21.9400       130
    22.0000       166
    22.0600       146
    22.1200       138
    22.1800       140
    22.2400       152
    22.3000       142
    22.3600       154
    22.4200       136
    22.4800       138
    22.5400       168
    22.6000       148
    22.6600       140
    22.7200       168
    22.7800       188
    22.8400       208
    22.9000       252
    22.9600       258
    23.0200       274
    23.0800       248
    23.1400       204
    23.2000       160
    23.2600       150
    23.3200       138
    23.3800       140
    23.4400       140
    23.5000       134
    23.5600       160
    23.6200       208
    23.6800       184
    23.7400       186
    23.8000       154
    23.8600       142
    23.9200       148
    23.9800       144
    24.0400       146
    24.1000       136
    24.1600       144
    24.2200       166
    24.2800       180
    24.3400       228
    24.4000       308
    24.4600       418
    24.5200       528
    24.5800       794
    24.6400      1318
    24.7000      1978
    24.7600      2580
    24.8200      2648
    24.8800      1760
    24.9400       892
    25.0000       474
    25.0600       306
    25.1200       260
    25.1800       206
    25.2400       182
    25.3000       158
    25.3600       156
    25.4200       150
    25.4800       128
    25.5400       116
    25.6000        96
    25.6600       120
    25.7200       128
    25.7800       108
    25.8400       106
    25.9000       128
    25.9600       134
    26.0200       164
    26.0800       160
    26.1400       168
    26.2000       196
    26.2600       174
    26.3200       156
    26.3800       162
    26.4400       148
    26.5000       184
    26.5600       168
    26.6200       172
    26.6800       158
    26.7400       176
    26.8000       172
    26.8600       106
    26.9200        86
    26.9800        56
    27.0400        88
    27.1000        78
    27.1600        68
    27.2200        60
    27.2800        68
    27.3400        74
    27.4000        66
    27.4600        84
    27.5200        64
    27.5800        76
    27.6400        76
    27.7000        94
    27.7600        68
    27.8200        72
    27.8800       100
    27.9400        74
    28.0000        74
    28.0600        68
    28.1200       104
    28.1800        76
    28.2400        96
    28.3000        80
    28.3600        82
    28.4200        86
    28.4800        94
    28.5400       104
    28.6000        92
    28.6600        96
    28.7200        94
    28.7800        74
    28.8400        70
    28.9000        38
    28.9600        76
    29.0200        62
    29.0800        56
    29.1400        52
    29.2000        46
    29.2600        56
    29.3200        66
    29.3800        48
    29.4400        54
    29.5000        44
    29.5600        52
    29.6200        64
    29.6800        72
    29.7400        84
    29.8000        60
    29.8600        60
    29.9200        68
    29.9800        56
    30.0400        60
    30.1000        48
    30.1600        54
    30.2200        44
    30.2800        58
    30.3400        34
    30.4000        48
    30.4600        48
    30.5200        36
    30.5800        48
    30.6400        42
    30.7000        62
    30.7600        46
    30.8200        52
    30.8800        54
    30.9400        60
    31.0000        54
    31.0600        70
    31.1200        64
    31.1800        56
    31.2400        46
    31.3000        62
    31.3600        52
    31.4200        56
    31.4800        54
    31.5400        44
    31.6000        68
    31.6600        42
    31.7200        38
    31.7800        64
    31.8400        58
    31.9000        56
    31.9600        66
    32.0200        62
    32.0800        58
    32.1400        54
    32.2000        52
    32.2600        76
    32.3200        96
    32.3800       100
    32.4400        92
    32.5000        80
    32.5600        76
    32.6200        70
    32.6800        56
    32.7400        48
    32.8000        36
    32.8600        52
    32.9200        26
    32.9800        48
    33.0400        40
    33.1000        56
    33.1600        42
    33.2200        52
    33.2800        48
    33.3400        42
    33.4000        40
    33.4600        46
    33.5200        46
    33.5800        52
    33.6400        46
    33.7000        42
    33.7600        52
    33.8200        58
    33.8800        48
    33.9400        42
    34.0000        40
    34.0600        50
    34.1200        46
    34.1800        52
    34.2400        48
    34.3000        52
    34.3600        70
    34.4200        72
    34.4800        62
    34.5400        80
    34.6000       112
    34.6600       124
    34.7200       172
    34.7800       272
    34.8400       324
    34.9000       328
    34.9600       284
    35.0200       212
    35.0800       178
    35.1400       192
    35.2000       190
    35.2600       196
    35.3200       234
    35.3800       172
    35.4400       164
    35.5000       172
    35.5600       168
    35.6200       198
    35.6800       230
    35.7400       296
    35.8000       358
    35.8600       366
    35.9200       348
    35.9800       256
    36.0400       168
    36.1000       126
    36.1600       100
    36.2200        80
    36.2800        72
    36.3400        60
    36.4000        68
    36.4600        66
    36.5200        56
    36.5800        64
    36.6400        48
    36.7000        52
    36.7600        64
    36.8200        48
    36.8800        58
    36.9400        62
    37.0000        80
    37.0600        38
    37.1200        86
    37.1800        82
    37.2400       100
    37.3000        68
    37.3600       126
    37.4200       148
    37.4800       208
    37.5400       346
    37.6000       388
    37.6600       342
    37.7200       264
    37.7800       202
    37.8400       132
    37.9000       136
    37.9600       138
    38.0200       186
    38.0800       202
    38.1400       308
    38.2000       456
    38.2600       548
    38.3200       606
    38.3800       536
    38.4400       424
    38.5000       378
    38.5600       254
    38.6200       204
    38.6800       190
    38.7400       178
    38.8000       156
    38.8600       154
    38.9200       196
    38.9800       256
    39.0400       304
    39.1000       354
    39.1600       404
    39.2200       350
    39.2800       240
    39.3400       170
    39.4000       118
    39.4600        86
    39.5200        70
    39.5800        68
    39.6400        68
    39.7000        58
    39.7600        68
    39.8200        92
    39.8800        66
    39.9400        86
    40.0000        76
    40.0600        70
    40.1200        76
    40.1800        64
    40.2400        58
    40.3000        64
    40.3600        54
    40.4200        60
    40.4800        66
    40.5400        52
    40.6000        56
    40.6600        66
    40.7200        70
    40.7800        80
    40.8400        74
    40.9000        82
    40.9600        88
    41.0200       102
    41.0800        88
    41.1400       106
    41.2000        60
    41.2600        82
    41.3200        76
    41.3800        54
    41.4400        54
    41.5000        44
    41.5600        40
    41.6200        50
    41.6800        60
    41.7400        56
    41.8000        54
    41.8600        56
    41.9200        54
    41.9800        64
    42.0400        50
    42.1000        60
    42.1600        58
    42.2200        72
    42.2800        62
    42.3400        64
    42.4000        64
    42.4600        52
    42.5200        36
    42.5800        54
    42.6400        46
    42.7000        44
    42.7600        46
    42.8200        28
    42.8800        32
    42.9400        44
    43.0000        38
    43.0600        46
    43.1200        40
    43.1800        46
    43.2400        38
    43.3000        46
    43.3600        50
    43.4200        44
    43.4800        28
    43.5400        34
    43.6000        38
    43.6600        32
    43.7200        38
    43.7800        46
    43.8400        48
    43.9000        36
    43.9600        38
    44.0200        46
    44.0800        38
    44.1400        44
    44.2000        52
    44.2600        42
    44.3200        36
    44.3800        52
    44.4400        44
    44.5000        44
    44.5600        34
    44.6200        40
    44.6800        46
    44.7400        54
    44.8000        50
    44.8600        48
    44.9200        76
    44.9800        86
    45.0400        82
    45.1000        96
    45.1600       164
    45.2200       174
    45.2800       202
    45.3400       254
    45.4000       240
    45.4600       218
    45.5200       210
    45.5800       182
    45.6400       150
    45.7000       128
    45.7600       104
    45.8200        96
    45.8800        72
    45.9400        76
    46.0000        66
    46.0600        48
    46.1200        70
    46.1800        54
    46.2400        92
    46.3000        64
    46.3600        86
    46.4200        80
    46.4800       108
    46.5400        92
    46.6000        84
    46.6600       128
    46.7200       108
    46.7800       122
    46.8400       112
    46.9000        92
    46.9600        82
    47.0200        74
    47.0800        74
    47.1400        76
    47.2000        62
    47.2600        74
    47.3200        62
    47.3800        48
    47.4400        58
    47.5000        52
    47.5600        74
    47.6200        78
    47.6800        82
    47.7400        82
    47.8000       106
    47.8600       104
    47.9200        90
    47.9800        76
    48.0400        74
    48.1000        58
    48.1600        48
    48.2200        70
    48.2800        64
    48.3400        70
    48.4000        70
    48.4600        54
    48.5200        72
    48.5800        64
    48.6400        62
    48.7000        70
    48.7600        46
    48.8200        38
    48.8800        52
    48.9400        66
    49.0000        64
    49.0600        72
    49.1200        70
    49.1800        96
    49.2400        86
    49.3000       100
    49.3600        90
    49.4200       102
    49.4800       104
    49.5400        82
    49.6000        66
    49.6600        78
    49.7200        74
    49.7800        38
    49.8400        44
    49.9000        50
    49.9600        54
    50.0200        36
    50.0800        44
    50.1400        38
    50.2000        50
    50.2600        42
    50.3200        46
    50.3800        52
    50.4400        44
    50.5000        58
    50.5600        52
    50.6200        44
    50.6800        64
    50.7400        74
    50.8000       102
    50.8600       154
    50.9200       192
    50.9800       142
    51.0400       128
    51.1000       122
    51.1600        66
    51.2200        48
    51.2800        52
    51.3400        46
    51.4000        40
    51.4600        42
    51.5200        40
    51.5800        32
    51.6400        54
    51.7000        34
    51.7600        28
    51.8200        36
    51.8800        28
    51.9400        30
    52.0000        46
    52.0600        46
    52.1200        38
    52.1800        44
    52.2400        38
    52.3000        34
    52.3600        42
    52.4200        38
    52.4800        42
    52.5400        22
    52.6000        28
    52.6600        42
    52.7200        40
    52.7800        44
    52.8400        46
    52.9000        50
    52.9600        36
    53.0200        40
    53.0800        42
    53.1400        38
    53.2000        32
    53.2600        36
    53.3200        42
    53.3800        40
    53.4400        58
    53.5000        44
    53.5600        56
    53.6200        54
    53.6800        56
    53.7400        48
    53.8000        46
    53.8600        52
    53.9200        66
    53.9800        62
    54.0400        66
    54.1000        80
    54.1600        92
    54.2200        92
    54.2800       116
    54.3400       108
    54.4000       128
    54.4600        98
    54.5200       108
    54.5800       126
    54.6400       160
    54.7000       136
    54.7600       178
    54.8200       198
    54.8800       254
    54.9400       238
    55.0000       268
    55.0600       242
    55.1200       256
    55.1800       258
    55.2400       218
    55.3000       224
    55.3600       182
    55.4200       170
    55.4800       144
    55.5400       152
    55.6000       126
    55.6600       122
    55.7200       120
    55.7800        80
    55.8400       116
    55.9000        90
    55.9600        72
    56.0200        84
    56.0800        92
    56.1400        90
    56.2000       106
    56.2600        98
    56.3200       108
    56.3800       114
    56.4400       116
    56.5000       138
    56.5600       148
    56.6200       144
    56.6800       174
    56.7400       164
    56.8000       170
    56.8600       144
    56.9200       112
    56.9800        88
    57.0400       100
    57.1000        70
    57.1600        62
    57.2200        62
    57.2800        72
    57.3400        58
    57.4000        58
    57.4600        56
    57.5200        46
    57.5800        62
    57.6400        66
    57.7000        50
    57.7600        60
    57.8200        78
    57.8800        86
    57.9400        94
    58.0000        90
    58.0600        90
    58.1200        94
    58.1800        92
    58.2400        86
    58.3000        82
    58.3600        60
    58.4200        58
    58.4800        48
    58.5400        60
    58.6000        44
    58.6600        56
    58.7200        34
    58.7800        48
    58.8400        56
    58.9000        50
    58.9600        48
    59.0200        60
    59.0800        46
    59.1400        58
    59.2000        56
    59.2600        80
    59.3200        72
    59.3800       106
    59.4400        88
    59.5000       108
    59.5600       106
    59.6200        98
    59.6800       100
    59.7400       116
    59.8000       110
    59.8600       102
    59.9200       106
    59.9800        96
    60.0400       114
    60.1000        90
    60.1600       100
    60.2200        72
    60.2800        76
    60.3400        70
    60.4000        56
    60.4600        56
    60.5200        48
    60.5800        66
    60.6400        34
    60.7000        66
    60.7600        68
    60.8200        44
    60.8800        44
    60.9400        58
    61.0000        44
    61.0600        54
    61.1200        56
    61.1800        52
    61.2400        44
    61.3000        56
    61.3600        66
    61.4200        48
    61.4800        60
    61.5400        52
    61.6000        54
    61.6600        52
    61.7200        70
    61.7800        70
    61.8400        72
    61.9000        74
    61.9600       128
    62.0200       164
    62.0800       234
    62.1400       250
    62.2000       282
    62.2600       274
    62.3200       228
    62.3800       218
    62.4400       142
    62.5000       126
    62.5600        86
    62.6200        64
    62.6800        64
    62.7400        62
    62.8000        62
    62.8600        50
    62.9200        70
    62.9800        56
    63.0400        72
    63.1000        64
    63.1600        66
    63.2200        64
    63.2800        58
    63.3400        58
    63.4000        60
    63.4600        50
    63.5200        56
    63.5800        78
    63.6400        58
    63.7000        86
    63.7600        80
    63.8200        96
    63.8800        82
    63.9400        96
    64.0000       100
    64.0600        78
    64.1200        74
    64.1800        78
    64.2400        70
    64.3000        78
    64.3600        72
    64.4200        80
    64.4800        58
    64.5400        72
    64.6000        74
    64.6600        64
    64.7200        58
    64.7800        54
    64.8400        48
    64.9000        64
    64.9600        88
    65.0000        90