File: sl1/usgs/library06/DESCRIPT/new_xrd_results_to_be_added/Rhonda_Driscoll_xrd_runs/SBS-03-1---Opal-A.txt
/////////////////////////////////////////////////////////////////////////////////
/// Profile Data Ascii Dump (XRD)                                             ///
/////////////////////////////////////////////////////////////////////////////////

  Group     : Swayze
  Data      : SBS-03-1
  File Name : SBS-03-1.RAW

# Profile Datafile
          comment             = Opal-A
          date & time         = 08-03-12 07:00:21

# Measurement Condition
    X-ray tube
          target              = Cu
          voltage             = 40.0 (kV)
          current             = 30.0 (mA)
    Slits
          divergence slit     = 2.00000 (deg)
          scatter slit        = 2.00000 (deg)
          receiving slit      = 0.15000 (mm)
    Scanning
          drive axis          = Theta-2Theta
          scan range          =    4.000 -   65.000
          scan mode           = Continuous Scan
          scan speed          =   2.0000 (deg/min)
          sampling pitch      =   0.0200 (deg)
          preset time         =   0.60 (sec)

# Data      [ Total No. = 3051 ]
  <2Theta>   <   I   >
     4.0000       226
     4.0600       230
     4.1200       206
     4.1800       230
     4.2400       218
     4.3000       182
     4.3600       214
     4.4200       216
     4.4800       212
     4.5400       204
     4.6000       184
     4.6600       170
     4.7200       182
     4.7800       196
     4.8400       216
     4.9000       202
     4.9600       190
     5.0200       202
     5.0800       174
     5.1400       194
     5.2000       178
     5.2600       176
     5.3200       196
     5.3800       160
     5.4400       188
     5.5000       192
     5.5600       158
     5.6200       186
     5.6800       176
     5.7400       204
     5.8000       192
     5.8600       182
     5.9200       170
     5.9800       192
     6.0400       176
     6.1000       164
     6.1600       162
     6.2200       164
     6.2800       168
     6.3400       184
     6.4000       162
     6.4600       148
     6.5200       166
     6.5800       156
     6.6400       166
     6.7000       144
     6.7600       168
     6.8200       142
     6.8800       164
     6.9400       160
     7.0000       178
     7.0600       144
     7.1200       156
     7.1800       128
     7.2400       164
     7.3000       148
     7.3600       150
     7.4200       120
     7.4800       130
     7.5400       130
     7.6000       150
     7.6600       142
     7.7200       128
     7.7800       130
     7.8400       126
     7.9000       134
     7.9600       150
     8.0200       116
     8.0800       150
     8.1400       140
     8.2000       148
     8.2600       132
     8.3200       144
     8.3800       142
     8.4400       136
     8.5000       132
     8.5600       144
     8.6200       176
     8.6800       166
     8.7400       142
     8.8000       128
     8.8600       152
     8.9200       122
     8.9800       150
     9.0400       138
     9.1000       132
     9.1600       126
     9.2200       128
     9.2800       126
     9.3400       142
     9.4000       130
     9.4600       144
     9.5200       130
     9.5800       134
     9.6400       134
     9.7000       146
     9.7600       138
     9.8200       146
     9.8800       134
     9.9400       126
    10.0000       120
    10.0600       120
    10.1200       142
    10.1800       114
    10.2400       134
    10.3000       138
    10.3600       124
    10.4200       122
    10.4800       150
    10.5400       136
    10.6000       128
    10.6600       116
    10.7200       124
    10.7800       140
    10.8400       122
    10.9000       124
    10.9600       108
    11.0200       104
    11.0800       106
    11.1400       128
    11.2000       114
    11.2600       120
    11.3200       112
    11.3800       130
    11.4400       124
    11.5000       110
    11.5600       100
    11.6200       110
    11.6800       116
    11.7400        96
    11.8000        96
    11.8600       108
    11.9200       110
    11.9800       108
    12.0400       134
    12.1000       102
    12.1600       114
    12.2200       110
    12.2800       112
    12.3400       106
    12.4000       124
    12.4600        96
    12.5200       110
    12.5800       106
    12.6400       104
    12.7000        92
    12.7600        96
    12.8200       110
    12.8800       104
    12.9400       110
    13.0000       104
    13.0600       100
    13.1200       112
    13.1800       104
    13.2400        90
    13.3000        94
    13.3600       120
    13.4200        92
    13.4800       110
    13.5400       106
    13.6000       110
    13.6600       108
    13.7200       122
    13.7800       106
    13.8400       124
    13.9000       108
    13.9600       106
    14.0200       108
    14.0800       122
    14.1400        98
    14.2000       106
    14.2600       122
    14.3200        94
    14.3800       116
    14.4400        98
    14.5000        96
    14.5600        96
    14.6200        84
    14.6800       108
    14.7400       128
    14.8000       114
    14.8600       122
    14.9200       108
    14.9800       116
    15.0400       114
    15.1000        98
    15.1600       110
    15.2200       108
    15.2800       112
    15.3400       104
    15.4000        98
    15.4600       110
    15.5200        96
    15.5800        96
    15.6400       120
    15.7000       132
    15.7600       130
    15.8200       114
    15.8800       118
    15.9400       124
    16.0000       116
    16.0600       130
    16.1200       122
    16.1800       120
    16.2400       110
    16.3000       120
    16.3600       108
    16.4200       142
    16.4800       126
    16.5400       146
    16.6000       120
    16.6600       140
    16.7200       148
    16.7800       128
    16.8400       138
    16.9000       142
    16.9600       144
    17.0200       144
    17.0800       130
    17.1400       136
    17.2000       134
    17.2600       160
    17.3200       172
    17.3800       136
    17.4400       144
    17.5000       134
    17.5600       140
    17.6200       160
    17.6800       154
    17.7400       136
    17.8000       174
    17.8600       176
    17.9200       172
    17.9800       172
    18.0400       162
    18.1000       172
    18.1600       186
    18.2200       160
    18.2800       166
    18.3400       180
    18.4000       202
    18.4600       206
    18.5200       170
    18.5800       198
    18.6400       196
    18.7000       216
    18.7600       188
    18.8200       178
    18.8800       196
    18.9400       198
    19.0000       204
    19.0600       220
    19.1200       206
    19.1800       202
    19.2400       212
    19.3000       216
    19.3600       228
    19.4200       218
    19.4800       222
    19.5400       250
    19.6000       220
    19.6600       230
    19.7200       266
    19.7800       254
    19.8400       270
    19.9000       234
    19.9600       234
    20.0200       228
    20.0800       266
    20.1400       282
    20.2000       272
    20.2600       260
    20.3200       266
    20.3800       320
    20.4400       260
    20.5000       298
    20.5600       302
    20.6200       260
    20.6800       300
    20.7400       382
    20.8000       382
    20.8600       314
    20.9200       306
    20.9800       286
    21.0400       288
    21.1000       300
    21.1600       296
    21.2200       288
    21.2800       298
    21.3400       280
    21.4000       296
    21.4600       314
    21.5200       310
    21.5800       296
    21.6400       308
    21.7000       306
    21.7600       326
    21.8200       336
    21.8800       326
    21.9400       298
    22.0000       276
    22.0600       286
    22.1200       306
    22.1800       304
    22.2400       310
    22.3000       324
    22.3600       286
    22.4200       312
    22.4800       270
    22.5400       304
    22.6000       318
    22.6600       308
    22.7200       304
    22.7800       318
    22.8400       286
    22.9000       302
    22.9600       322
    23.0200       288
    23.0800       306
    23.1400       284
    23.2000       302
    23.2600       266
    23.3200       340
    23.3800       288
    23.4400       326
    23.5000       324
    23.5600       278
    23.6200       262
    23.6800       256
    23.7400       274
    23.8000       258
    23.8600       294
    23.9200       240
    23.9800       290
    24.0400       284
    24.1000       282
    24.1600       264
    24.2200       290
    24.2800       270
    24.3400       312
    24.4000       268
    24.4600       250
    24.5200       240
    24.5800       230
    24.6400       264
    24.7000       258
    24.7600       242
    24.8200       262
    24.8800       230
    24.9400       260
    25.0000       220
    25.0600       228
    25.1200       248
    25.1800       202
    25.2400       228
    25.3000       226
    25.3600       230
    25.4200       194
    25.4800       200
    25.5400       232
    25.6000       268
    25.6600       272
    25.7200       204
    25.7800       228
    25.8400       214
    25.9000       186
    25.9600       196
    26.0200       202
    26.0800       196
    26.1400       190
    26.2000       224
    26.2600       220
    26.3200       204
    26.3800       226
    26.4400       284
    26.5000       302
    26.5600       350
    26.6200       268
    26.6800       222
    26.7400       178
    26.8000       202
    26.8600       190
    26.9200       186
    26.9800       176
    27.0400       200
    27.1000       170
    27.1600       204
    27.2200       192
    27.2800       198
    27.3400       184
    27.4000       174
    27.4600       196
    27.5200       192
    27.5800       186
    27.6400       202
    27.7000       230
    27.7600       256
    27.8200       278
    27.8800       454
    27.9400       410
    28.0000       250
    28.0600       182
    28.1200       158
    28.1800       166
    28.2400       158
    28.3000       172
    28.3600       162
    28.4200       148
    28.4800       152
    28.5400       150
    28.6000       138
    28.6600       148
    28.7200       154
    28.7800       142
    28.8400       134
    28.9000       138
    28.9600       158
    29.0200       138
    29.0800       126
    29.1400       124
    29.2000       142
    29.2600       144
    29.3200       140
    29.3800       154
    29.4400       146
    29.5000       140
    29.5600       118
    29.6200       124
    29.6800       122
    29.7400       122
    29.8000       160
    29.8600       160
    29.9200       156
    29.9800       132
    30.0400       126
    30.1000       106
    30.1600       150
    30.2200       148
    30.2800       158
    30.3400       124
    30.4000       136
    30.4600       136
    30.5200       128
    30.5800       132
    30.6400       132
    30.7000       118
    30.7600       106
    30.8200       122
    30.8800       120
    30.9400       134
    31.0000       106
    31.0600       124
    31.1200       116
    31.1800       124
    31.2400       118
    31.3000       134
    31.3600       102
    31.4200       104
    31.4800       116
    31.5400       108
    31.6000       104
    31.6600       130
    31.7200       128
    31.7800        96
    31.8400        96
    31.9000       108
    31.9600        94
    32.0200       102
    32.0800       100
    32.1400       110
    32.2000       112
    32.2600       110
    32.3200       100
    32.3800       104
    32.4400        96
    32.5000        98
    32.5600       118
    32.6200       102
    32.6800       114
    32.7400       110
    32.8000       122
    32.8600        98
    32.9200       120
    32.9800       102
    33.0400        86
    33.1000       122
    33.1600        96
    33.2200       106
    33.2800       114
    33.3400       122
    33.4000        92
    33.4600       108
    33.5200        94
    33.5800        86
    33.6400       104
    33.7000        80
    33.7600        96
    33.8200       104
    33.8800        88
    33.9400        90
    34.0000       102
    34.0600       102
    34.1200        98
    34.1800        90
    34.2400       106
    34.3000        92
    34.3600       104
    34.4200        84
    34.4800        86
    34.5400       114
    34.6000        94
    34.6600        94
    34.7200        90
    34.7800       116
    34.8400        94
    34.9000        92
    34.9600       100
    35.0200       100
    35.0800        86
    35.1400       102
    35.2000        90
    35.2600       100
    35.3200       112
    35.3800        94
    35.4400       102
    35.5000       110
    35.5600        96
    35.6200        92
    35.6800        96
    35.7400        92
    35.8000        98
    35.8600        98
    35.9200       102
    35.9800       100
    36.0400       106
    36.1000        96
    36.1600        92
    36.2200        86
    36.2800       118
    36.3400        96
    36.4000        94
    36.4600       114
    36.5200       112
    36.5800        90
    36.6400        82
    36.7000       110
    36.7600        78
    36.8200        94
    36.8800        82
    36.9400        92
    37.0000        88
    37.0600        88
    37.1200        84
    37.1800        90
    37.2400        86
    37.3000        98
    37.3600        98
    37.4200        98
    37.4800        80
    37.5400       100
    37.6000        74
    37.6600        94
    37.7200       106
    37.7800        74
    37.8400        78
    37.9000        84
    37.9600        80
    38.0200        82
    38.0800        98
    38.1400        82
    38.2000        82
    38.2600        88
    38.3200        82
    38.3800        84
    38.4400        82
    38.5000        94
    38.5600        96
    38.6200        84
    38.6800        78
    38.7400        82
    38.8000        74
    38.8600        78
    38.9200        80
    38.9800        80
    39.0400        82
    39.1000        88
    39.1600        90
    39.2200        84
    39.2800        86
    39.3400        78
    39.4000        88
    39.4600        86
    39.5200        88
    39.5800        76
    39.6400        82
    39.7000        86
    39.7600        76
    39.8200        80
    39.8800        78
    39.9400        80
    40.0000        80
    40.0600        80
    40.1200        62
    40.1800        92
    40.2400        72
    40.3000        80
    40.3600        74
    40.4200        94
    40.4800        72
    40.5400        70
    40.6000        84
    40.6600        84
    40.7200        56
    40.7800        78
    40.8400        80
    40.9000        88
    40.9600        72
    41.0200        76
    41.0800        74
    41.1400        68
    41.2000        68
    41.2600        72
    41.3200        92
    41.3800        90
    41.4400        60
    41.5000        72
    41.5600        84
    41.6200        88
    41.6800        66
    41.7400        78
    41.8000        64
    41.8600        66
    41.9200        74
    41.9800        70
    42.0400        84
    42.1000        78
    42.1600        86
    42.2200        98
    42.2800        82
    42.3400       100
    42.4000        90
    42.4600        80
    42.5200        68
    42.5800        74
    42.6400        72
    42.7000        74
    42.7600        70
    42.8200        94
    42.8800        72
    42.9400        84
    43.0000        98
    43.0600        68
    43.1200        94
    43.1800        88
    43.2400       108
    43.3000        82
    43.3600        66
    43.4200        88
    43.4800        82
    43.5400        72
    43.6000        76
    43.6600        72
    43.7200        82
    43.7800        78
    43.8400        76
    43.9000        76
    43.9600        80
    44.0200        76
    44.0800        70
    44.1400        86
    44.2000        74
    44.2600        70
    44.3200        76
    44.3800       106
    44.4400        68
    44.5000        90
    44.5600        72
    44.6200        64
    44.6800        76
    44.7400        72
    44.8000        68
    44.8600        92
    44.9200        66
    44.9800        88
    45.0400        70
    45.1000        86
    45.1600        84
    45.2200        76
    45.2800        82
    45.3400        78
    45.4000        66
    45.4600        76
    45.5200        72
    45.5800        86
    45.6400        84
    45.7000        80
    45.7600        82
    45.8200        74
    45.8800        76
    45.9400        74
    46.0000        84
    46.0600        70
    46.1200        68
    46.1800        82
    46.2400        64
    46.3000        70
    46.3600        74
    46.4200        78
    46.4800        80
    46.5400        98
    46.6000        74
    46.6600        80
    46.7200        70
    46.7800        78
    46.8400        74
    46.9000        68
    46.9600        76
    47.0200       102
    47.0800        80
    47.1400        66
    47.2000        74
    47.2600        84
    47.3200        86
    47.3800        62
    47.4400        68
    47.5000        58
    47.5600        62
    47.6200        74
    47.6800        70
    47.7400        78
    47.8000        72
    47.8600        68
    47.9200        56
    47.9800        82
    48.0400        74
    48.1000        84
    48.1600        62
    48.2200        66
    48.2800        82
    48.3400        86
    48.4000        72
    48.4600        70
    48.5200        78
    48.5800        68
    48.6400        84
    48.7000        78
    48.7600        88
    48.8200        70
    48.8800        76
    48.9400        70
    49.0000        90
    49.0600        84
    49.1200        54
    49.1800        78
    49.2400        76
    49.3000        66
    49.3600        68
    49.4200        76
    49.4800        80
    49.5400        70
    49.6000        80
    49.6600        72
    49.7200        76
    49.7800        66
    49.8400        64
    49.9000        72
    49.9600        84
    50.0200        92
    50.0800        88
    50.1400        90
    50.2000        88
    50.2600        72
    50.3200        60
    50.3800        50
    50.4400        78
    50.5000        62
    50.5600        56
    50.6200        72
    50.6800        82
    50.7400        74
    50.8000        64
    50.8600        62
    50.9200        60
    50.9800        68
    51.0400        62
    51.1000        80
    51.1600        76
    51.2200        68
    51.2800        58
    51.3400        66
    51.4000        78
    51.4600        74
    51.5200        62
    51.5800        54
    51.6400        76
    51.7000        86
    51.7600        82
    51.8200        68
    51.8800        70
    51.9400        64
    52.0000        86
    52.0600        64
    52.1200        70
    52.1800        68
    52.2400        66
    52.3000        64
    52.3600       100
    52.4200        82
    52.4800        72
    52.5400        68
    52.6000        68
    52.6600        54
    52.7200        78
    52.7800        74
    52.8400        74
    52.9000        62
    52.9600        62
    53.0200        70
    53.0800        54
    53.1400        62
    53.2000        74
    53.2600        56
    53.3200        68
    53.3800        62
    53.4400        72
    53.5000        78
    53.5600        72
    53.6200        82
    53.6800        56
    53.7400        82
    53.8000        58
    53.8600        54
    53.9200        78
    53.9800        80
    54.0400        74
    54.1000        74
    54.1600        66
    54.2200        74
    54.2800        76
    54.3400        70
    54.4000        68
    54.4600        64
    54.5200        72
    54.5800        66
    54.6400        78
    54.7000        80
    54.7600        80
    54.8200        92
    54.8800        68
    54.9400        76
    55.0000        76
    55.0600        60
    55.1200        76
    55.1800        80
    55.2400        68
    55.3000        80
    55.3600        58
    55.4200        68
    55.4800        70
    55.5400        70
    55.6000        68
    55.6600        66
    55.7200        88
    55.7800        76
    55.8400        86
    55.9000        56
    55.9600        76
    56.0200        68
    56.0800        70
    56.1400        82
    56.2000        66
    56.2600        60
    56.3200        66
    56.3800        58
    56.4400        84
    56.5000        66
    56.5600        46
    56.6200        82
    56.6800        60
    56.7400        88
    56.8000        76
    56.8600        50
    56.9200        90
    56.9800        68
    57.0400        64
    57.1000        62
    57.1600        62
    57.2200        70
    57.2800       110
    57.3400        76
    57.4000        66
    57.4600        76
    57.5200        88
    57.5800        66
    57.6400        80
    57.7000        72
    57.7600        70
    57.8200        72
    57.8800        66
    57.9400        68
    58.0000        84
    58.0600        64
    58.1200        74
    58.1800        64
    58.2400        76
    58.3000        80
    58.3600        70
    58.4200        78
    58.4800        78
    58.5400        68
    58.6000        68
    58.6600        84
    58.7200        62
    58.7800        64
    58.8400        76
    58.9000        76
    58.9600        62
    59.0200        60
    59.0800        74
    59.1400        62
    59.2000        46
    59.2600        76
    59.3200        84
    59.3800        60
    59.4400        72
    59.5000        56
    59.5600        70
    59.6200        64
    59.6800        76
    59.7400        72
    59.8000        82
    59.8600        96
    59.9200        88
    59.9800        70
    60.0400        82
    60.1000        82
    60.1600        82
    60.2200        70
    60.2800        78
    60.3400        72
    60.4000        66
    60.4600        74
    60.5200        70
    60.5800        80
    60.6400        66
    60.7000        68
    60.7600        74
    60.8200        72
    60.8800        52
    60.9400        64
    61.0000        62
    61.0600        76
    61.1200        80
    61.1800        80
    61.2400        64
    61.3000        62
    61.3600        76
    61.4200        74
    61.4800        84
    61.5400        72
    61.6000        76
    61.6600        70
    61.7200        78
    61.7800        72
    61.8400        76
    61.9000        58
    61.9600        72
    62.0200        56
    62.0800        58
    62.1400        68
    62.2000        76
    62.2600        66
    62.3200        72
    62.3800        68
    62.4400        88
    62.5000        88
    62.5600        62
    62.6200        66
    62.6800        84
    62.7400        88
    62.8000        66
    62.8600        66
    62.9200        72
    62.9800        76
    63.0400        54
    63.1000        74
    63.1600        56
    63.2200        72
    63.2800        70
    63.3400        82
    63.4000        76
    63.4600        80
    63.5200        78
    63.5800        74
    63.6400        66
    63.7000        78
    63.7600        76
    63.8200        82
    63.8800        80
    63.9400        68
    64.0000        54
    64.0600        80
    64.1200        74
    64.1800        74
    64.2400        82
    64.3000        64
    64.3600        64
    64.4200        56
    64.4800        68
    64.5400        74
    64.6000        90
    64.6600        72
    64.7200        72
    64.7800        74
    64.8400        82
    64.9000        68
    64.9600        58
    65.0000        90