File: sl1/usgs/library06/DESCRIPT/new_xrd_results_to_be_added/Rhonda_Driscoll_xrd_runs/SCF-NHJ-B-AmmonioJarosite.txt
/////////////////////////////////////////////////////////////////////////////////
/// Profile Data Ascii Dump (XRD)                                             ///
/////////////////////////////////////////////////////////////////////////////////

  Group     : Swayze
  Data      : SCF-NHJ-B
  File Name : SCF-NHJ-B.RAW

# Profile Datafile
          comment             = AmmonioJarosite
          date & time         = 08-04-14 06:49:38

# Measurement Condition
    X-ray tube
          target              = Cu
          voltage             = 40.0 (kV)
          current             = 30.0 (mA)
    Slits
          divergence slit     = 2.00000 (deg)
          scatter slit        = 2.00000 (deg)
          receiving slit      = 0.15000 (mm)
    Scanning
          drive axis          = Theta-2Theta
          scan range          =    4.000 -   65.000
          scan mode           = Continuous Scan
          scan speed          =   2.0000 (deg/min)
          sampling pitch      =   0.0200 (deg)
          preset time         =   0.60 (sec)

# Data      [ Total No. = 3051 ]
  <2Theta>   <   I   >
     4.0000       200
     4.0600       196
     4.1200       174
     4.1800       192
     4.2400       182
     4.3000       202
     4.3600       180
     4.4200       184
     4.4800       164
     4.5400       190
     4.6000       198
     4.6600       184
     4.7200       162
     4.7800       196
     4.8400       158
     4.9000       176
     4.9600       158
     5.0200       152
     5.0800       130
     5.1400       166
     5.2000       168
     5.2600       170
     5.3200       188
     5.3800       188
     5.4400       176
     5.5000       154
     5.5600       168
     5.6200       186
     5.6800       166
     5.7400       182
     5.8000       184
     5.8600       162
     5.9200       166
     5.9800       170
     6.0400       178
     6.1000       146
     6.1600       166
     6.2200       170
     6.2800       174
     6.3400       148
     6.4000       162
     6.4600       146
     6.5200       128
     6.5800       150
     6.6400       146
     6.7000       164
     6.7600       136
     6.8200       136
     6.8800       124
     6.9400       140
     7.0000       132
     7.0600       118
     7.1200       158
     7.1800       126
     7.2400       146
     7.3000       146
     7.3600       134
     7.4200       120
     7.4800       132
     7.5400       108
     7.6000       128
     7.6600       128
     7.7200       108
     7.7800       122
     7.8400       126
     7.9000       122
     7.9600       106
     8.0200       114
     8.0800       126
     8.1400       110
     8.2000       120
     8.2600       112
     8.3200       132
     8.3800       126
     8.4400       110
     8.5000       132
     8.5600       122
     8.6200       128
     8.6800       112
     8.7400       136
     8.8000       140
     8.8600       136
     8.9200       116
     8.9800       112
     9.0400       138
     9.1000       146
     9.1600       114
     9.2200       108
     9.2800       122
     9.3400       118
     9.4000       136
     9.4600       138
     9.5200       106
     9.5800       124
     9.6400       128
     9.7000       108
     9.7600       128
     9.8200       108
     9.8800       126
     9.9400       128
    10.0000       116
    10.0600       114
    10.1200       108
    10.1800       126
    10.2400       110
    10.3000       114
    10.3600       102
    10.4200       108
    10.4800       124
    10.5400       116
    10.6000       106
    10.6600        82
    10.7200       106
    10.7800       100
    10.8400        86
    10.9000       120
    10.9600        92
    11.0200       102
    11.0800       100
    11.1400        78
    11.2000       112
    11.2600        86
    11.3200       110
    11.3800       104
    11.4400       108
    11.5000        68
    11.5600        88
    11.6200        88
    11.6800       102
    11.7400        80
    11.8000       114
    11.8600        88
    11.9200        96
    11.9800       116
    12.0400        72
    12.1000        84
    12.1600        78
    12.2200        72
    12.2800        88
    12.3400        88
    12.4000        76
    12.4600        74
    12.5200        92
    12.5800        86
    12.6400        72
    12.7000        76
    12.7600        96
    12.8200        70
    12.8800        68
    12.9400        94
    13.0000        74
    13.0600        78
    13.1200        70
    13.1800        88
    13.2400        86
    13.3000        94
    13.3600        74
    13.4200        78
    13.4800        82
    13.5400        76
    13.6000        96
    13.6600        74
    13.7200        72
    13.7800        60
    13.8400        60
    13.9000        52
    13.9600        78
    14.0200        82
    14.0800        70
    14.1400        54
    14.2000        82
    14.2600        64
    14.3200        88
    14.3800        84
    14.4400        70
    14.5000       110
    14.5600       100
    14.6200       110
    14.6800       170
    14.7400       214
    14.8000       168
    14.8600       112
    14.9200       144
    14.9800       240
    15.0400       288
    15.1000       288
    15.1600       162
    15.2200        84
    15.2800        64
    15.3400        90
    15.4000        74
    15.4600        70
    15.5200        74
    15.5800        68
    15.6400        92
    15.7000        68
    15.7600        70
    15.8200        62
    15.8800        52
    15.9400        50
    16.0000        56
    16.0600        92
    16.1200        68
    16.1800        66
    16.2400        74
    16.3000        68
    16.3600        62
    16.4200        76
    16.4800        60
    16.5400        74
    16.6000        74
    16.6600        94
    16.7200        96
    16.7800       116
    16.8400       140
    16.9000       176
    16.9600       234
    17.0200       376
    17.0800       668
    17.1400       908
    17.2000       686
    17.2600       234
    17.3200       108
    17.3800        92
    17.4400        72
    17.5000        64
    17.5600        56
    17.6200        74
    17.6800        62
    17.7400        62
    17.8000        70
    17.8600        62
    17.9200        48
    17.9800        66
    18.0400        62
    18.1000        58
    18.1600        40
    18.2200        60
    18.2800        72
    18.3400        56
    18.4000        64
    18.4600        52
    18.5200        64
    18.5800        74
    18.6400        58
    18.7000        60
    18.7600        50
    18.8200        50
    18.8800        78
    18.9400        64
    19.0000        46
    19.0600        48
    19.1200        50
    19.1800        54
    19.2400        60
    19.3000        44
    19.3600        66
    19.4200        64
    19.4800        50
    19.5400        60
    19.6000        68
    19.6600        52
    19.7200        58
    19.7800        44
    19.8400        56
    19.9000        52
    19.9600        42
    20.0200        52
    20.0800        62
    20.1400        44
    20.2000        54
    20.2600        56
    20.3200        58
    20.3800        60
    20.4400        52
    20.5000        50
    20.5600        58
    20.6200        56
    20.6800        62
    20.7400        48
    20.8000        66
    20.8600        52
    20.9200        54
    20.9800        58
    21.0400        52
    21.1000        46
    21.1600        56
    21.2200        48
    21.2800        44
    21.3400        46
    21.4000        48
    21.4600        48
    21.5200        42
    21.5800        62
    21.6400        42
    21.7000        54
    21.7600        44
    21.8200        44
    21.8800        46
    21.9400        50
    22.0000        66
    22.0600        48
    22.1200        34
    22.1800        52
    22.2400        60
    22.3000        66
    22.3600        46
    22.4200        50
    22.4800        40
    22.5400        52
    22.6000        64
    22.6600        52
    22.7200        56
    22.7800        60
    22.8400        44
    22.9000        52
    22.9600        62
    23.0200        44
    23.0800        60
    23.1400        52
    23.2000        42
    23.2600        46
    23.3200        42
    23.3800        54
    23.4400        36
    23.5000        40
    23.5600        48
    23.6200        42
    23.6800        50
    23.7400        64
    23.8000        54
    23.8600        66
    23.9200        50
    23.9800        52
    24.0400        62
    24.1000       110
    24.1600       164
    24.2200       112
    24.2800        82
    24.3400        62
    24.4000        54
    24.4600        78
    24.5200        86
    24.5800       106
    24.6400        92
    24.7000        62
    24.7600        56
    24.8200        42
    24.8800        46
    24.9400        52
    25.0000        56
    25.0600        50
    25.1200        44
    25.1800        54
    25.2400        36
    25.3000        40
    25.3600        46
    25.4200        48
    25.4800        40
    25.5400        38
    25.6000        46
    25.6600        50
    25.7200        62
    25.7800        54
    25.8400        56
    25.9000        46
    25.9600        56
    26.0200        36
    26.0800        46
    26.1400        36
    26.2000        50
    26.2600        56
    26.3200        50
    26.3800        44
    26.4400        42
    26.5000        42
    26.5600        44
    26.6200        38
    26.6800        28
    26.7400        52
    26.8000        46
    26.8600        46
    26.9200        44
    26.9800        58
    27.0400        48
    27.1000        60
    27.1600        50
    27.2200        46
    27.2800        38
    27.3400        58
    27.4000        54
    27.4600        68
    27.5200        42
    27.5800        56
    27.6400        50
    27.7000        58
    27.7600        56
    27.8200        62
    27.8800        56
    27.9400        54
    28.0000        60
    28.0600        74
    28.1200        84
    28.1800       126
    28.2400       190
    28.3000       306
    28.3600       606
    28.4200      1000
    28.4800      1320
    28.5400      1200
    28.6000      1236
    28.6600      1232
    28.7200       848
    28.7800       352
    28.8400       162
    28.9000       132
    28.9600       116
    29.0200       126
    29.0800        78
    29.1400        68
    29.2000        50
    29.2600        58
    29.3200        38
    29.3800        44
    29.4400        54
    29.5000        60
    29.5600        52
    29.6200        62
    29.6800        54
    29.7400        84
    29.8000       120
    29.8600        92
    29.9200        66
    29.9800        60
    30.0400        50
    30.1000        40
    30.1600        48
    30.2200        58
    30.2800        90
    30.3400        98
    30.4000       152
    30.4600       186
    30.5200       230
    30.5800       138
    30.6400       106
    30.7000        60
    30.7600        40
    30.8200        44
    30.8800        30
    30.9400        46
    31.0000        36
    31.0600        34
    31.1200        46
    31.1800        32
    31.2400        44
    31.3000        48
    31.3600        30
    31.4200        48
    31.4800        40
    31.5400        42
    31.6000        40
    31.6600        32
    31.7200        42
    31.7800        44
    31.8400        36
    31.9000        28
    31.9600        34
    32.0200        28
    32.0800        32
    32.1400        34
    32.2000        46
    32.2600        22
    32.3200        40
    32.3800        24
    32.4400        24
    32.5000        36
    32.5600        36
    32.6200        32
    32.6800        46
    32.7400        42
    32.8000        34
    32.8600        40
    32.9200        24
    32.9800        46
    33.0400        38
    33.1000        36
    33.1600        32
    33.2200        44
    33.2800        42
    33.3400        30
    33.4000        38
    33.4600        46
    33.5200        28
    33.5800        46
    33.6400        40
    33.7000        42
    33.7600        54
    33.8200        52
    33.8800        34
    33.9400        34
    34.0000        26
    34.0600        48
    34.1200        34
    34.1800        50
    34.2400        36
    34.3000        40
    34.3600        42
    34.4200        38
    34.4800        46
    34.5400        62
    34.6000        82
    34.6600        96
    34.7200       150
    34.7800       212
    34.8400       190
    34.9000       134
    34.9600        80
    35.0200        56
    35.0800        48
    35.1400        34
    35.2000        38
    35.2600        36
    35.3200        34
    35.3800        26
    35.4400        40
    35.5000        32
    35.5600        30
    35.6200        40
    35.6800        32
    35.7400        38
    35.8000        36
    35.8600        30
    35.9200        24
    35.9800        28
    36.0400        36
    36.1000        42
    36.1600        40
    36.2200        38
    36.2800        32
    36.3400        34
    36.4000        40
    36.4600        24
    36.5200        36
    36.5800        36
    36.6400        42
    36.7000        36
    36.7600        46
    36.8200        46
    36.8800        36
    36.9400        34
    37.0000        44
    37.0600        38
    37.1200        36
    37.1800        36
    37.2400        42
    37.3000        38
    37.3600        28
    37.4200        50
    37.4800        36
    37.5400        32
    37.6000        44
    37.6600        42
    37.7200        46
    37.7800        40
    37.8400        44
    37.9000        38
    37.9600        34
    38.0200        48
    38.0800        54
    38.1400        60
    38.2000        74
    38.2600        74
    38.3200        80
    38.3800       152
    38.4400       202
    38.5000       322
    38.5600       332
    38.6200       276
    38.6800       208
    38.7400       124
    38.8000        82
    38.8600        62
    38.9200        52
    38.9800        44
    39.0400        36
    39.1000        44
    39.1600        48
    39.2200        48
    39.2800        38
    39.3400        48
    39.4000        42
    39.4600        38
    39.5200        34
    39.5800        32
    39.6400        34
    39.7000        34
    39.7600        50
    39.8200        30
    39.8800        30
    39.9400        34
    40.0000        34
    40.0600        44
    40.1200        34
    40.1800        34
    40.2400        40
    40.3000        32
    40.3600        36
    40.4200        44
    40.4800        38
    40.5400        34
    40.6000        26
    40.6600        40
    40.7200        28
    40.7800        46
    40.8400        26
    40.9000        38
    40.9600        30
    41.0200        36
    41.0800        38
    41.1400        38
    41.2000        34
    41.2600        24
    41.3200        32
    41.3800        40
    41.4400        36
    41.5000        40
    41.5600        34
    41.6200        32
    41.6800        32
    41.7400        28
    41.8000        38
    41.8600        32
    41.9200        32
    41.9800        40
    42.0400        28
    42.1000        32
    42.1600        36
    42.2200        38
    42.2800        28
    42.3400        32
    42.4000        34
    42.4600        30
    42.5200        48
    42.5800        50
    42.6400        46
    42.7000        42
    42.7600        44
    42.8200        34
    42.8800        34
    42.9400        36
    43.0000        32
    43.0600        44
    43.1200        30
    43.1800        30
    43.2400        34
    43.3000        32
    43.3600        36
    43.4200        28
    43.4800        36
    43.5400        42
    43.6000        40
    43.6600        34
    43.7200        48
    43.7800        36
    43.8400        36
    43.9000        34
    43.9600        48
    44.0200        26
    44.0800        40
    44.1400        36
    44.2000        34
    44.2600        34
    44.3200        40
    44.3800        40
    44.4400        36
    44.5000        58
    44.5600        42
    44.6200        44
    44.6800        40
    44.7400        30
    44.8000        34
    44.8600        40
    44.9200        46
    44.9800        38
    45.0400        40
    45.1000        50
    45.1600        52
    45.2200        78
    45.2800        94
    45.3400       122
    45.4000       218
    45.4600       354
    45.5200       336
    45.5800       238
    45.6400       170
    45.7000        96
    45.7600        58
    45.8200        56
    45.8800        76
    45.9400        92
    46.0000       124
    46.0600       132
    46.1200       158
    46.1800        98
    46.2400        70
    46.3000        62
    46.3600        64
    46.4200       108
    46.4800       102
    46.5400       122
    46.6000       112
    46.6600        88
    46.7200        50
    46.7800        38
    46.8400        46
    46.9000        40
    46.9600        38
    47.0200        52
    47.0800        38
    47.1400        32
    47.2000        42
    47.2600        36
    47.3200        28
    47.3800        36
    47.4400        28
    47.5000        42
    47.5600        36
    47.6200        28
    47.6800        22
    47.7400        46
    47.8000        40
    47.8600        32
    47.9200        36
    47.9800        30
    48.0400        34
    48.1000        42
    48.1600        28
    48.2200        46
    48.2800        32
    48.3400        36
    48.4000        32
    48.4600        22
    48.5200        36
    48.5800        28
    48.6400        36
    48.7000        38
    48.7600        34
    48.8200        38
    48.8800        40
    48.9400        60
    49.0000        40
    49.0600        32
    49.1200        42
    49.1800        32
    49.2400        44
    49.3000        44
    49.3600        40
    49.4200        48
    49.4800       104
    49.5400       226
    49.6000       418
    49.6600       332
    49.7200       254
    49.7800       186
    49.8400        92
    49.9000        68
    49.9600        44
    50.0200        44
    50.0800        40
    50.1400        34
    50.2000        46
    50.2600        34
    50.3200        38
    50.3800        50
    50.4400        58
    50.5000        82
    50.5600        66
    50.6200        62
    50.6800        62
    50.7400        46
    50.8000        30
    50.8600        24
    50.9200        32
    50.9800        22
    51.0400        30
    51.1000        38
    51.1600        34
    51.2200        32
    51.2800        40
    51.3400        32
    51.4000        36
    51.4600        36
    51.5200        44
    51.5800        36
    51.6400        46
    51.7000        42
    51.7600        42
    51.8200        38
    51.8800        48
    51.9400        36
    52.0000        36
    52.0600        64
    52.1200        86
    52.1800       104
    52.2400       126
    52.3000        80
    52.3600        70
    52.4200        62
    52.4800        48
    52.5400        40
    52.6000        40
    52.6600        50
    52.7200        48
    52.7800        62
    52.8400        82
    52.9000       104
    52.9600       100
    53.0200        84
    53.0800        74
    53.1400        52
    53.2000        46
    53.2600        42
    53.3200        40
    53.3800        38
    53.4400        26
    53.5000        34
    53.5600        36
    53.6200        42
    53.6800        34
    53.7400        32
    53.8000        40
    53.8600        42
    53.9200        30
    53.9800        30
    54.0400        50
    54.1000        32
    54.1600        36
    54.2200        36
    54.2800        26
    54.3400        32
    54.4000        30
    54.4600        32
    54.5200        24
    54.5800        38
    54.6400        34
    54.7000        30
    54.7600        38
    54.8200        38
    54.8800        32
    54.9400        22
    55.0000        30
    55.0600        26
    55.1200        32
    55.1800        44
    55.2400        34
    55.3000        36
    55.3600        34
    55.4200        36
    55.4800        40
    55.5400        30
    55.6000        26
    55.6600        34
    55.7200        34
    55.7800        34
    55.8400        28
    55.9000        38
    55.9600        36
    56.0200        48
    56.0800        50
    56.1400        66
    56.2000       116
    56.2600        78
    56.3200        74
    56.3800        48
    56.4400        40
    56.5000        66
    56.5600        54
    56.6200        48
    56.6800        58
    56.7400        78
    56.8000        92
    56.8600        94
    56.9200        94
    56.9800        52
    57.0400        50
    57.1000        44
    57.1600        38
    57.2200        44
    57.2800        32
    57.3400        36
    57.4000        34
    57.4600        36
    57.5200        38
    57.5800        34
    57.6400        42
    57.7000        30
    57.7600        22
    57.8200        38
    57.8800        32
    57.9400        34
    58.0000        28
    58.0600        36
    58.1200        44
    58.1800        90
    58.2400        78
    58.3000        92
    58.3600        82
    58.4200        54
    58.4800        56
    58.5400        58
    58.6000        48
    58.6600        46
    58.7200        48
    58.7800        46
    58.8400        44
    58.9000        38
    58.9600        66
    59.0200        80
    59.0800       100
    59.1400        74
    59.2000        86
    59.2600        88
    59.3200        96
    59.3800       156
    59.4400       160
    59.5000       156
    59.5600       132
    59.6200       102
    59.6800        74
    59.7400        56
    59.8000        56
    59.8600        58
    59.9200        70
    59.9800        92
    60.0400        98
    60.1000       128
    60.1600       170
    60.2200       160
    60.2800       170
    60.3400       152
    60.4000       128
    60.4600        72
    60.5200        52
    60.5800        62
    60.6400        32
    60.7000        44
    60.7600        44
    60.8200        24
    60.8800        38
    60.9400        28
    61.0000        40
    61.0600        22
    61.1200        46
    61.1800        38
    61.2400        34
    61.3000        32
    61.3600        34
    61.4200        26
    61.4800        28
    61.5400        32
    61.6000        26
    61.6600        30
    61.7200        30
    61.7800        32
    61.8400        46
    61.9000        48
    61.9600        50
    62.0200        74
    62.0800        92
    62.1400        76
    62.2000        54
    62.2600        66
    62.3200        42
    62.3800        34
    62.4400        44
    62.5000        38
    62.5600        32
    62.6200        36
    62.6800        32
    62.7400        46
    62.8000        36
    62.8600        34
    62.9200        40
    62.9800        28
    63.0400        36
    63.1000        26
    63.1600        28
    63.2200        34
    63.2800        24
    63.3400        38
    63.4000        32
    63.4600        32
    63.5200        38
    63.5800        30
    63.6400        28
    63.7000        26
    63.7600        26
    63.8200        34
    63.8800        48
    63.9400        52
    64.0000        50
    64.0600        38
    64.1200        54
    64.1800        42
    64.2400        66
    64.3000        82
    64.3600        92
    64.4200        74
    64.4800        48
    64.5400        94
    64.6000        98
    64.6600        74
    64.7200        82
    64.7800       114
    64.8400        94
    64.9000        52
    64.9600        70
    65.0000        66