File: sl1/usgs/library06/DESCRIPT/new_xrd_results_to_be_added/Rhonda_Driscoll_xrd_runs/SCF-NHJ-4-AmmonioJaro.txt
/////////////////////////////////////////////////////////////////////////////////
/// Profile Data Ascii Dump (XRD)                                             ///
/////////////////////////////////////////////////////////////////////////////////

  Group     : Swayze
  Data      : SCF-NHJ-A
  File Name : SCF-NHJ-A.RAW

# Profile Datafile
          comment             = AmmonioJarosite
          date & time         = 08-04-09 07:51:18

# Measurement Condition
    X-ray tube
          target              = Cu
          voltage             = 40.0 (kV)
          current             = 30.0 (mA)
    Slits
          divergence slit     = 2.00000 (deg)
          scatter slit        = 2.00000 (deg)
          receiving slit      = 0.15000 (mm)
    Scanning
          drive axis          = Theta-2Theta
          scan range          =    4.000 -   65.000
          scan mode           = Continuous Scan
          scan speed          =   2.0000 (deg/min)
          sampling pitch      =   0.0200 (deg)
          preset time         =   0.60 (sec)

# Data      [ Total No. = 3051 ]
  <2Theta>   <   I   >
     4.0000       178
     4.0600       162
     4.1200       200
     4.1800       208
     4.2400       162
     4.3000       156
     4.3600       182
     4.4200       156
     4.4800       180
     4.5400       180
     4.6000       130
     4.6600       174
     4.7200       150
     4.7800       176
     4.8400       194
     4.9000       144
     4.9600       158
     5.0200       154
     5.0800       146
     5.1400       160
     5.2000       160
     5.2600       172
     5.3200       124
     5.3800       146
     5.4400       152
     5.5000       168
     5.5600       152
     5.6200       156
     5.6800       158
     5.7400       136
     5.8000       168
     5.8600       166
     5.9200       152
     5.9800       134
     6.0400       148
     6.1000       142
     6.1600       144
     6.2200       150
     6.2800       136
     6.3400       140
     6.4000       122
     6.4600       136
     6.5200       140
     6.5800       142
     6.6400       120
     6.7000       140
     6.7600       118
     6.8200       104
     6.8800       114
     6.9400       106
     7.0000       124
     7.0600       128
     7.1200       118
     7.1800       110
     7.2400        94
     7.3000       126
     7.3600       112
     7.4200       128
     7.4800       132
     7.5400       118
     7.6000       100
     7.6600        88
     7.7200       104
     7.7800        92
     7.8400       104
     7.9000       102
     7.9600       130
     8.0200        96
     8.0800       100
     8.1400       100
     8.2000       114
     8.2600       130
     8.3200        94
     8.3800       138
     8.4400       112
     8.5000        88
     8.5600       116
     8.6200       110
     8.6800       152
     8.7400       108
     8.8000       106
     8.8600       108
     8.9200       108
     8.9800       116
     9.0400       116
     9.1000       104
     9.1600       118
     9.2200       104
     9.2800       104
     9.3400       102
     9.4000       124
     9.4600       128
     9.5200       100
     9.5800       108
     9.6400       116
     9.7000       116
     9.7600       118
     9.8200       112
     9.8800       114
     9.9400       116
    10.0000       110
    10.0600       104
    10.1200        86
    10.1800        94
    10.2400       102
    10.3000        86
    10.3600       106
    10.4200       102
    10.4800       100
    10.5400        92
    10.6000        88
    10.6600        96
    10.7200        90
    10.7800        92
    10.8400        76
    10.9000       102
    10.9600        88
    11.0200       106
    11.0800        76
    11.1400        94
    11.2000        80
    11.2600        90
    11.3200        92
    11.3800        90
    11.4400        92
    11.5000        66
    11.5600        92
    11.6200        74
    11.6800        82
    11.7400        90
    11.8000        90
    11.8600        96
    11.9200        86
    11.9800        74
    12.0400        80
    12.1000        64
    12.1600        80
    12.2200        80
    12.2800        90
    12.3400        80
    12.4000        90
    12.4600        58
    12.5200        86
    12.5800        98
    12.6400        76
    12.7000        68
    12.7600        80
    12.8200        74
    12.8800        70
    12.9400        64
    13.0000        64
    13.0600        74
    13.1200        60
    13.1800        80
    13.2400        80
    13.3000        80
    13.3600        60
    13.4200        74
    13.4800        68
    13.5400        76
    13.6000        70
    13.6600        74
    13.7200        76
    13.7800        80
    13.8400        62
    13.9000        68
    13.9600        68
    14.0200        68
    14.0800        84
    14.1400        86
    14.2000        70
    14.2600        66
    14.3200        76
    14.3800        78
    14.4400        78
    14.5000        82
    14.5600        82
    14.6200        90
    14.6800        98
    14.7400       140
    14.8000       180
    14.8600       204
    14.9200       148
    14.9800       150
    15.0400       218
    15.1000       282
    15.1600       276
    15.2200       196
    15.2800        90
    15.3400        88
    15.4000        76
    15.4600        58
    15.5200        68
    15.5800        76
    15.6400        58
    15.7000        54
    15.7600        70
    15.8200        66
    15.8800        62
    15.9400        66
    16.0000        50
    16.0600        58
    16.1200        60
    16.1800        68
    16.2400        52
    16.3000        68
    16.3600        56
    16.4200        60
    16.4800        68
    16.5400        54
    16.6000        46
    16.6600        76
    16.7200        78
    16.7800        84
    16.8400        96
    16.9000       118
    16.9600       162
    17.0200       240
    17.0800       362
    17.1400       596
    17.2000       872
    17.2600       778
    17.3200       280
    17.3800       112
    17.4400        72
    17.5000        64
    17.5600        66
    17.6200        68
    17.6800        60
    17.7400        56
    17.8000        68
    17.8600        70
    17.9200        64
    17.9800        62
    18.0400        74
    18.1000        50
    18.1600        56
    18.2200        46
    18.2800        44
    18.3400        48
    18.4000        62
    18.4600        54
    18.5200        54
    18.5800        50
    18.6400        54
    18.7000        54
    18.7600        58
    18.8200        50
    18.8800        50
    18.9400        50
    19.0000        50
    19.0600        58
    19.1200        58
    19.1800        54
    19.2400        52
    19.3000        48
    19.3600        54
    19.4200        48
    19.4800        44
    19.5400        56
    19.6000        56
    19.6600        50
    19.7200        56
    19.7800        58
    19.8400        44
    19.9000        46
    19.9600        38
    20.0200        52
    20.0800        48
    20.1400        42
    20.2000        50
    20.2600        50
    20.3200        64
    20.3800        62
    20.4400        44
    20.5000        54
    20.5600        56
    20.6200        56
    20.6800        50
    20.7400        40
    20.8000        58
    20.8600        62
    20.9200        50
    20.9800        54
    21.0400        48
    21.1000        48
    21.1600        46
    21.2200        38
    21.2800        40
    21.3400        34
    21.4000        38
    21.4600        42
    21.5200        46
    21.5800        56
    21.6400        44
    21.7000        44
    21.7600        64
    21.8200        50
    21.8800        44
    21.9400        54
    22.0000        52
    22.0600        42
    22.1200        58
    22.1800        42
    22.2400        40
    22.3000        48
    22.3600        52
    22.4200        56
    22.4800        36
    22.5400        54
    22.6000        42
    22.6600        54
    22.7200        46
    22.7800        54
    22.8400        34
    22.9000        54
    22.9600        34
    23.0200        50
    23.0800        46
    23.1400        44
    23.2000        48
    23.2600        46
    23.3200        52
    23.3800        42
    23.4400        40
    23.5000        42
    23.5600        40
    23.6200        34
    23.6800        34
    23.7400        40
    23.8000        40
    23.8600        48
    23.9200        38
    23.9800        70
    24.0400        64
    24.1000        84
    24.1600        92
    24.2200       130
    24.2800       116
    24.3400        92
    24.4000        58
    24.4600        54
    24.5200        70
    24.5800       102
    24.6400        96
    24.7000        98
    24.7600        82
    24.8200        62
    24.8800        42
    24.9400        62
    25.0000        46
    25.0600        42
    25.1200        38
    25.1800        46
    25.2400        56
    25.3000        60
    25.3600        48
    25.4200        46
    25.4800        54
    25.5400        36
    25.6000        54
    25.6600        42
    25.7200        54
    25.7800        60
    25.8400        40
    25.9000        42
    25.9600        44
    26.0200        40
    26.0800        44
    26.1400        30
    26.2000        44
    26.2600        48
    26.3200        40
    26.3800        42
    26.4400        46
    26.5000        44
    26.5600        40
    26.6200        40
    26.6800        50
    26.7400        42
    26.8000        42
    26.8600        48
    26.9200        36
    26.9800        28
    27.0400        40
    27.1000        38
    27.1600        54
    27.2200        36
    27.2800        38
    27.3400        52
    27.4000        46
    27.4600        56
    27.5200        64
    27.5800        52
    27.6400        48
    27.7000        54
    27.7600        46
    27.8200        34
    27.8800        62
    27.9400        58
    28.0000        56
    28.0600        56
    28.1200        84
    28.1800        84
    28.2400       114
    28.3000       154
    28.3600       282
    28.4200       490
    28.4800       906
    28.5400      1226
    28.6000      1160
    28.6600      1190
    28.7200      1206
    28.7800       892
    28.8400       424
    28.9000       182
    28.9600       118
    29.0200       118
    29.0800       126
    29.1400        88
    29.2000        62
    29.2600        60
    29.3200        44
    29.3800        62
    29.4400        54
    29.5000        50
    29.5600        58
    29.6200        52
    29.6800        48
    29.7400        74
    29.8000        74
    29.8600        96
    29.9200        90
    29.9800        76
    30.0400        50
    30.1000        42
    30.1600        48
    30.2200        48
    30.2800        52
    30.3400        86
    30.4000       110
    30.4600       130
    30.5200       160
    30.5800       184
    30.6400       168
    30.7000       120
    30.7600        52
    30.8200        50
    30.8800        36
    30.9400        46
    31.0000        34
    31.0600        50
    31.1200        40
    31.1800        42
    31.2400        44
    31.3000        34
    31.3600        30
    31.4200        34
    31.4800        48
    31.5400        34
    31.6000        40
    31.6600        34
    31.7200        56
    31.7800        36
    31.8400        34
    31.9000        40
    31.9600        38
    32.0200        34
    32.0800        48
    32.1400        38
    32.2000        42
    32.2600        42
    32.3200        36
    32.3800        36
    32.4400        48
    32.5000        26
    32.5600        44
    32.6200        42
    32.6800        42
    32.7400        40
    32.8000        46
    32.8600        42
    32.9200        22
    32.9800        42
    33.0400        34
    33.1000        50
    33.1600        40
    33.2200        32
    33.2800        36
    33.3400        48
    33.4000        26
    33.4600        28
    33.5200        44
    33.5800        40
    33.6400        38
    33.7000        34
    33.7600        38
    33.8200        34
    33.8800        36
    33.9400        42
    34.0000        40
    34.0600        30
    34.1200        30
    34.1800        40
    34.2400        38
    34.3000        44
    34.3600        40
    34.4200        34
    34.4800        44
    34.5400        52
    34.6000        42
    34.6600        82
    34.7200       116
    34.7800       168
    34.8400       194
    34.9000       218
    34.9600       154
    35.0200        90
    35.0800        60
    35.1400        36
    35.2000        32
    35.2600        32
    35.3200        26
    35.3800        28
    35.4400        34
    35.5000        44
    35.5600        36
    35.6200        34
    35.6800        28
    35.7400        30
    35.8000        32
    35.8600        32
    35.9200        42
    35.9800        52
    36.0400        38
    36.1000        32
    36.1600        24
    36.2200        44
    36.2800        34
    36.3400        38
    36.4000        26
    36.4600        30
    36.5200        40
    36.5800        36
    36.6400        44
    36.7000        30
    36.7600        40
    36.8200        38
    36.8800        42
    36.9400        42
    37.0000        48
    37.0600        36
    37.1200        30
    37.1800        36
    37.2400        30
    37.3000        48
    37.3600        40
    37.4200        40
    37.4800        34
    37.5400        34
    37.6000        40
    37.6600        36
    37.7200        40
    37.7800        38
    37.8400        44
    37.9000        46
    37.9600        42
    38.0200        40
    38.0800        52
    38.1400        56
    38.2000        72
    38.2600        58
    38.3200        62
    38.3800        92
    38.4400       146
    38.5000       244
    38.5600       290
    38.6200       346
    38.6800       296
    38.7400       238
    38.8000       118
    38.8600        94
    38.9200        70
    38.9800        46
    39.0400        48
    39.1000        38
    39.1600        38
    39.2200        36
    39.2800        46
    39.3400        50
    39.4000        44
    39.4600        44
    39.5200        50
    39.5800        34
    39.6400        38
    39.7000        28
    39.7600        42
    39.8200        36
    39.8800        26
    39.9400        24
    40.0000        20
    40.0600        32
    40.1200        44
    40.1800        34
    40.2400        38
    40.3000        36
    40.3600        32
    40.4200        46
    40.4800        36
    40.5400        24
    40.6000        30
    40.6600        34
    40.7200        30
    40.7800        30
    40.8400        34
    40.9000        34
    40.9600        34
    41.0200        28
    41.0800        40
    41.1400        40
    41.2000        34
    41.2600        36
    41.3200        38
    41.3800        30
    41.4400        32
    41.5000        28
    41.5600        38
    41.6200        36
    41.6800        32
    41.7400        26
    41.8000        32
    41.8600        30
    41.9200        32
    41.9800        38
    42.0400        20
    42.1000        38
    42.1600        40
    42.2200        38
    42.2800        34
    42.3400        34
    42.4000        46
    42.4600        40
    42.5200        32
    42.5800        42
    42.6400        50
    42.7000        60
    42.7600        42
    42.8200        42
    42.8800        38
    42.9400        40
    43.0000        44
    43.0600        30
    43.1200        42
    43.1800        34
    43.2400        42
    43.3000        30
    43.3600        38
    43.4200        34
    43.4800        34
    43.5400        26
    43.6000        32
    43.6600        52
    43.7200        50
    43.7800        22
    43.8400        34
    43.9000        26
    43.9600        36
    44.0200        32
    44.0800        34
    44.1400        32
    44.2000        42
    44.2600        34
    44.3200        30
    44.3800        30
    44.4400        38
    44.5000        36
    44.5600        38
    44.6200        30
    44.6800        40
    44.7400        32
    44.8000        38
    44.8600        28
    44.9200        32
    44.9800        42
    45.0400        44
    45.1000        42
    45.1600        36
    45.2200        48
    45.2800        48
    45.3400        98
    45.4000       146
    45.4600       210
    45.5200       334
    45.5800       352
    45.6400       274
    45.7000       200
    45.7600       116
    45.8200        56
    45.8800        46
    45.9400        64
    46.0000        92
    46.0600       114
    46.1200       162
    46.1800       130
    46.2400       110
    46.3000        86
    46.3600        76
    46.4200        74
    46.4800        90
    46.5400       110
    46.6000       112
    46.6600       118
    46.7200        98
    46.7800        56
    46.8400        46
    46.9000        40
    46.9600        58
    47.0200        28
    47.0800        40
    47.1400        40
    47.2000        34
    47.2600        30
    47.3200        30
    47.3800        36
    47.4400        30
    47.5000        32
    47.5600        36
    47.6200        38
    47.6800        50
    47.7400        38
    47.8000        24
    47.8600        30
    47.9200        28
    47.9800        32
    48.0400        36
    48.1000        38
    48.1600        32
    48.2200        36
    48.2800        34
    48.3400        30
    48.4000        22
    48.4600        34
    48.5200        38
    48.5800        26
    48.6400        32
    48.7000        28
    48.7600        34
    48.8200        18
    48.8800        38
    48.9400        24
    49.0000        44
    49.0600        38
    49.1200        34
    49.1800        38
    49.2400        30
    49.3000        36
    49.3600        44
    49.4200        58
    49.4800        62
    49.5400        78
    49.6000       182
    49.6600       326
    49.7200       364
    49.7800       290
    49.8400       196
    49.9000       118
    49.9600        72
    50.0200        50
    50.0800        44
    50.1400        52
    50.2000        36
    50.2600        46
    50.3200        48
    50.3800        40
    50.4400        72
    50.5000        54
    50.5600        70
    50.6200        76
    50.6800        56
    50.7400        48
    50.8000        40
    50.8600        50
    50.9200        60
    50.9800        36
    51.0400        30
    51.1000        40
    51.1600        22
    51.2200        52
    51.2800        28
    51.3400        42
    51.4000        36
    51.4600        40
    51.5200        24
    51.5800        32
    51.6400        40
    51.7000        32
    51.7600        32
    51.8200        40
    51.8800        36
    51.9400        24
    52.0000        32
    52.0600        34
    52.1200        46
    52.1800        70
    52.2400       120
    52.3000       110
    52.3600        72
    52.4200        72
    52.4800        54
    52.5400        38
    52.6000        34
    52.6600        40
    52.7200        40
    52.7800        48
    52.8400        54
    52.9000        84
    52.9600       112
    53.0200        94
    53.0800        84
    53.1400        72
    53.2000        46
    53.2600        40
    53.3200        34
    53.3800        28
    53.4400        34
    53.5000        22
    53.5600        30
    53.6200        38
    53.6800        32
    53.7400        30
    53.8000        32
    53.8600        30
    53.9200        36
    53.9800        30
    54.0400        26
    54.1000        24
    54.1600        28
    54.2200        28
    54.2800        46
    54.3400        32
    54.4000        26
    54.4600        32
    54.5200        30
    54.5800        32
    54.6400        22
    54.7000        42
    54.7600        26
    54.8200        30
    54.8800        24
    54.9400        30
    55.0000        28
    55.0600        34
    55.1200        34
    55.1800        34
    55.2400        28
    55.3000        28
    55.3600        26
    55.4200        34
    55.4800        30
    55.5400        34
    55.6000        34
    55.6600        40
    55.7200        34
    55.7800        22
    55.8400        46
    55.9000        34
    55.9600        28
    56.0200        48
    56.0800        50
    56.1400        46
    56.2000        58
    56.2600       106
    56.3200        84
    56.3800        64
    56.4400        50
    56.5000        52
    56.5600        58
    56.6200        42
    56.6800        58
    56.7400        60
    56.8000        72
    56.8600        74
    56.9200       100
    56.9800        72
    57.0400        68
    57.1000        54
    57.1600        58
    57.2200        32
    57.2800        44
    57.3400        42
    57.4000        24
    57.4600        32
    57.5200        28
    57.5800        28
    57.6400        28
    57.7000        46
    57.7600        40
    57.8200        22
    57.8800        46
    57.9400        30
    58.0000        38
    58.0600        42
    58.1200        46
    58.1800        46
    58.2400        64
    58.3000        94
    58.3600        98
    58.4200        58
    58.4800        68
    58.5400        52
    58.6000        70
    58.6600        76
    58.7200        70
    58.7800        50
    58.8400        42
    58.9000        30
    58.9600        42
    59.0200        62
    59.0800        74
    59.1400        86
    59.2000        50
    59.2600        82
    59.3200       108
    59.3800        92
    59.4400       150
    59.5000       158
    59.5600       148
    59.6200       138
    59.6800        94
    59.7400        92
    59.8000        60
    59.8600        56
    59.9200        46
    59.9800        60
    60.0400        92
    60.1000       124
    60.1600       140
    60.2200       146
    60.2800       166
    60.3400       150
    60.4000       150
    60.4600       104
    60.5200        86
    60.5800        66
    60.6400        44
    60.7000        48
    60.7600        34
    60.8200        36
    60.8800        40
    60.9400        36
    61.0000        30
    61.0600        34
    61.1200        40
    61.1800        48
    61.2400        22
    61.3000        34
    61.3600        26
    61.4200        32
    61.4800        26
    61.5400        28
    61.6000        28
    61.6600        30
    61.7200        24
    61.7800        42
    61.8400        38
    61.9000        42
    61.9600        42
    62.0200        54
    62.0800        72
    62.1400        86
    62.2000        80
    62.2600        66
    62.3200        66
    62.3800        48
    62.4400        42
    62.5000        28
    62.5600        34
    62.6200        42
    62.6800        28
    62.7400        26
    62.8000        44
    62.8600        32
    62.9200        40
    62.9800        32
    63.0400        32
    63.1000        32
    63.1600        22
    63.2200        30
    63.2800        30
    63.3400        26
    63.4000        40
    63.4600        28
    63.5200        26
    63.5800        30
    63.6400        30
    63.7000        32
    63.7600        30
    63.8200        34
    63.8800        34
    63.9400        30
    64.0000        46
    64.0600        46
    64.1200        48
    64.1800        46
    64.2400        52
    64.3000        52
    64.3600        72
    64.4200        78
    64.4800        68
    64.5400        50
    64.6000        80
    64.6600        78
    64.7200        86
    64.7800        76
    64.8400        90
    64.9000        90
    64.9600        50
    65.0000        70