File: sl1/usgs/library06/DESCRIPT/new_xrd_results_to_be_added/Rhonda_Driscoll_xrd_runs/WS-737---Chabazite.txt
/////////////////////////////////////////////////////////////////////////////////
/// Profile Data Ascii Dump (XRD)                                             ///
/////////////////////////////////////////////////////////////////////////////////

  Group     : Swayze
  Data      : WS 737
  File Name : WS 737.RAW

# Profile Datafile
          comment             = Chabazite
          date & time         = 08-03-12 06:29:26

# Measurement Condition
    X-ray tube
          target              = Cu
          voltage             = 40.0 (kV)
          current             = 30.0 (mA)
    Slits
          divergence slit     = 2.00000 (deg)
          scatter slit        = 2.00000 (deg)
          receiving slit      = 0.15000 (mm)
    Scanning
          drive axis          = Theta-2Theta
          scan range          =    4.000 -   65.000
          scan mode           = Continuous Scan
          scan speed          =   2.0000 (deg/min)
          sampling pitch      =   0.0200 (deg)
          preset time         =   0.60 (sec)

# Data      [ Total No. = 3051 ]
  <2Theta>   <   I   >
     4.0000       186
     4.0600       194
     4.1200       192
     4.1800       180
     4.2400       174
     4.3000       184
     4.3600       194
     4.4200       168
     4.4800       174
     4.5400       160
     4.6000       158
     4.6600       164
     4.7200       178
     4.7800       156
     4.8400       158
     4.9000       172
     4.9600       166
     5.0200       150
     5.0800       178
     5.1400       164
     5.2000       176
     5.2600       164
     5.3200       184
     5.3800       190
     5.4400       164
     5.5000       176
     5.5600       164
     5.6200       162
     5.6800       148
     5.7400       160
     5.8000       182
     5.8600       174
     5.9200       140
     5.9800       186
     6.0400       184
     6.1000       176
     6.1600       178
     6.2200       172
     6.2800       172
     6.3400       148
     6.4000       170
     6.4600       160
     6.5200       158
     6.5800       164
     6.6400       140
     6.7000       140
     6.7600       170
     6.8200       162
     6.8800       156
     6.9400       166
     7.0000       152
     7.0600       140
     7.1200       130
     7.1800       124
     7.2400       118
     7.3000       122
     7.3600       118
     7.4200       148
     7.4800       144
     7.5400       126
     7.6000       114
     7.6600       122
     7.7200       114
     7.7800       120
     7.8400       118
     7.9000       116
     7.9600       116
     8.0200       112
     8.0800       122
     8.1400       112
     8.2000       128
     8.2600       110
     8.3200       116
     8.3800       126
     8.4400       124
     8.5000       148
     8.5600       128
     8.6200       144
     8.6800       114
     8.7400       136
     8.8000       126
     8.8600       132
     8.9200       150
     8.9800       186
     9.0400       170
     9.1000       216
     9.1600       250
     9.2200       348
     9.2800       380
     9.3400       546
     9.4000      1254
     9.4600      1342
     9.5200       440
     9.5800       164
     9.6400       134
     9.7000       126
     9.7600       126
     9.8200       124
     9.8800       126
     9.9400       104
    10.0000       102
    10.0600       106
    10.1200       104
    10.1800       122
    10.2400       136
    10.3000       124
    10.3600       102
    10.4200       112
    10.4800       110
    10.5400       112
    10.6000        98
    10.6600        86
    10.7200       100
    10.7800        98
    10.8400        96
    10.9000        84
    10.9600       106
    11.0200       102
    11.0800       100
    11.1400       100
    11.2000        86
    11.2600       126
    11.3200        96
    11.3800        96
    11.4400        80
    11.5000       106
    11.5600        88
    11.6200        72
    11.6800        98
    11.7400        92
    11.8000        80
    11.8600       100
    11.9200        78
    11.9800        82
    12.0400       100
    12.1000        78
    12.1600        84
    12.2200        84
    12.2800        96
    12.3400        86
    12.4000        94
    12.4600       108
    12.5200       124
    12.5800       120
    12.6400       132
    12.7000       144
    12.7600       236
    12.8200       228
    12.8800       126
    12.9400        80
    13.0000        94
    13.0600        94
    13.1200        76
    13.1800        92
    13.2400        76
    13.3000        84
    13.3600       102
    13.4200        90
    13.4800        86
    13.5400        96
    13.6000        98
    13.6600        92
    13.7200        90
    13.7800        96
    13.8400       112
    13.9000       144
    13.9600       128
    14.0200        74
    14.0800        84
    14.1400        76
    14.2000        80
    14.2600        76
    14.3200        76
    14.3800        66
    14.4400        72
    14.5000        78
    14.5600        82
    14.6200        80
    14.6800        74
    14.7400        78
    14.8000        78
    14.8600        68
    14.9200        64
    14.9800        92
    15.0400        60
    15.1000        90
    15.1600        82
    15.2200        78
    15.2800        84
    15.3400        78
    15.4000        86
    15.4600        72
    15.5200       102
    15.5800        74
    15.6400       110
    15.7000       108
    15.7600       130
    15.8200       184
    15.8800       292
    15.9400       384
    16.0000       260
    16.0600       116
    16.1200        90
    16.1800        76
    16.2400        72
    16.3000        68
    16.3600        70
    16.4200        68
    16.4800        84
    16.5400        76
    16.6000        68
    16.6600        66
    16.7200        78
    16.7800        88
    16.8400        72
    16.9000        56
    16.9600        70
    17.0200        78
    17.0800        80
    17.1400        74
    17.2000        84
    17.2600        92
    17.3200        90
    17.3800       100
    17.4400        82
    17.5000       146
    17.5600       276
    17.6200       264
    17.6800       328
    17.7400       324
    17.8000       212
    17.8600       100
    17.9200        72
    17.9800        88
    18.0400        72
    18.1000        60
    18.1600        72
    18.2200        74
    18.2800        74
    18.3400        90
    18.4000        74
    18.4600        80
    18.5200        96
    18.5800        72
    18.6400        66
    18.7000        80
    18.7600        98
    18.8200       126
    18.8800       176
    18.9400       246
    19.0000       248
    19.0600       134
    19.1200        70
    19.1800        82
    19.2400        94
    19.3000        86
    19.3600        76
    19.4200        56
    19.4800        74
    19.5400        96
    19.6000        86
    19.6600        92
    19.7200        66
    19.7800        86
    19.8400        78
    19.9000        68
    19.9600        92
    20.0200        72
    20.0800       104
    20.1400       120
    20.2000       204
    20.2600       234
    20.3200       342
    20.3800       512
    20.4400      1120
    20.5000      1700
    20.5600      1224
    20.6200       452
    20.6800       180
    20.7400       156
    20.8000       206
    20.8600       132
    20.9200        84
    20.9800        72
    21.0400        68
    21.1000        64
    21.1600        70
    21.2200        66
    21.2800        66
    21.3400        66
    21.4000        76
    21.4600        76
    21.5200        84
    21.5800        80
    21.6400        54
    21.7000        80
    21.7600        76
    21.8200        76
    21.8800        82
    21.9400       110
    22.0000        94
    22.0600        82
    22.1200        76
    22.1800        94
    22.2400       108
    22.3000       102
    22.3600        82
    22.4200        68
    22.4800        80
    22.5400        68
    22.6000        72
    22.6600        90
    22.7200        98
    22.7800        98
    22.8400       214
    22.9000       290
    22.9600       354
    23.0200       272
    23.0800       132
    23.1400        84
    23.2000        82
    23.2600        82
    23.3200        66
    23.3800        64
    23.4400        60
    23.5000        68
    23.5600        62
    23.6200        62
    23.6800        76
    23.7400        52
    23.8000        58
    23.8600        56
    23.9200        76
    23.9800        80
    24.0400        72
    24.1000        98
    24.1600        76
    24.2200        86
    24.2800        70
    24.3400        70
    24.4000        74
    24.4600        78
    24.5200        88
    24.5800        98
    24.6400       122
    24.7000       162
    24.7600       270
    24.8200       484
    24.8800       572
    24.9400       350
    25.0000       152
    25.0600       106
    25.1200        76
    25.1800        72
    25.2400        70
    25.3000        76
    25.3600        64
    25.4200        78
    25.4800        72
    25.5400        80
    25.6000        88
    25.6600       122
    25.7200       244
    25.7800       314
    25.8400       308
    25.9000       156
    25.9600       112
    26.0200        80
    26.0800        72
    26.1400        56
    26.2000        80
    26.2600        86
    26.3200        78
    26.3800        82
    26.4400       146
    26.5000       272
    26.5600       402
    26.6200       328
    26.6800       170
    26.7400       108
    26.8000        74
    26.8600        74
    26.9200        78
    26.9800        74
    27.0400        68
    27.1000        60
    27.1600        70
    27.2200        48
    27.2800        58
    27.3400        74
    27.4000        98
    27.4600       134
    27.5200       196
    27.5800       176
    27.6400       138
    27.7000       104
    27.7600        94
    27.8200        62
    27.8800       106
    27.9400       118
    28.0000       150
    28.0600       198
    28.1200       236
    28.1800       170
    28.2400        84
    28.3000        88
    28.3600        76
    28.4200        88
    28.4800        70
    28.5400        54
    28.6000        66
    28.6600        64
    28.7200        64
    28.7800        54
    28.8400        70
    28.9000        62
    28.9600        62
    29.0200        72
    29.0800        74
    29.1400        74
    29.2000        78
    29.2600        88
    29.3200       114
    29.3800        86
    29.4400       102
    29.5000        88
    29.5600        70
    29.6200        76
    29.6800        58
    29.7400        78
    29.8000        68
    29.8600        64
    29.9200        90
    29.9800        66
    30.0400        78
    30.1000        98
    30.1600       120
    30.2200       152
    30.2800       222
    30.3400       460
    30.4000       722
    30.4600      1012
    30.5200      1188
    30.5800       688
    30.6400       460
    30.7000       474
    30.7600       396
    30.8200       326
    30.8800       466
    30.9400       572
    31.0000       732
    31.0600       474
    31.1200       258
    31.1800       134
    31.2400        90
    31.3000       102
    31.3600        88
    31.4200       132
    31.4800       148
    31.5400       166
    31.6000       118
    31.6600        86
    31.7200        80
    31.7800        70
    31.8400        70
    31.9000        92
    31.9600        68
    32.0200        70
    32.0800        76
    32.1400        92
    32.2000       116
    32.2600       116
    32.3200        78
    32.3800        70
    32.4400        74
    32.5000        66
    32.5600        76
    32.6200        64
    32.6800        66
    32.7400        80
    32.8000        56
    32.8600        84
    32.9200        68
    32.9800        94
    33.0400       110
    33.1000        90
    33.1600       132
    33.2200       132
    33.2800       182
    33.3400       184
    33.4000       428
    33.4600       240
    33.5200       182
    33.5800        90
    33.6400        68
    33.7000        64
    33.7600        56
    33.8200        68
    33.8800        68
    33.9400        74
    34.0000        84
    34.0600        72
    34.1200        90
    34.1800        96
    34.2400       138
    34.3000       240
    34.3600       354
    34.4200       306
    34.4800       212
    34.5400       108
    34.6000        94
    34.6600        96
    34.7200       104
    34.7800       114
    34.8400       132
    34.9000       110
    34.9600        84
    35.0200        68
    35.0800        84
    35.1400        66
    35.2000        80
    35.2600        66
    35.3200        76
    35.3800        82
    35.4400       106
    35.5000        86
    35.5600        98
    35.6200       100
    35.6800       106
    35.7400       160
    35.8000       246
    35.8600       564
    35.9200       916
    35.9800       618
    36.0400       318
    36.1000       150
    36.1600        86
    36.2200        64
    36.2800        76
    36.3400        78
    36.4000       118
    36.4600        94
    36.5200        94
    36.5800        80
    36.6400        72
    36.7000        68
    36.7600        74
    36.8200        70
    36.8800        70
    36.9400        64
    37.0000        76
    37.0600        66
    37.1200        54
    37.1800        60
    37.2400        72
    37.3000        50
    37.3600        74
    37.4200        60
    37.4800        86
    37.5400        60
    37.6000        58
    37.6600        56
    37.7200        46
    37.7800        70
    37.8400        58
    37.9000        64
    37.9600        74
    38.0200        76
    38.0800        64
    38.1400        64
    38.2000        62
    38.2600       100
    38.3200        78
    38.3800        82
    38.4400        88
    38.5000       102
    38.5600        88
    38.6200        84
    38.6800        78
    38.7400        76
    38.8000        72
    38.8600        70
    38.9200        84
    38.9800        94
    39.0400        96
    39.1000       142
    39.1600       122
    39.2200       144
    39.2800       134
    39.3400       110
    39.4000        86
    39.4600        90
    39.5200       104
    39.5800        96
    39.6400        80
    39.7000        72
    39.7600        72
    39.8200        64
    39.8800        58
    39.9400        64
    40.0000        54
    40.0600        68
    40.1200        64
    40.1800        64
    40.2400        88
    40.3000        72
    40.3600        74
    40.4200        76
    40.4800        66
    40.5400        62
    40.6000        74
    40.6600        90
    40.7200        66
    40.7800        92
    40.8400        68
    40.9000        56
    40.9600        58
    41.0200        74
    41.0800        56
    41.1400        64
    41.2000        52
    41.2600        56
    41.3200        58
    41.3800        70
    41.4400        66
    41.5000        68
    41.5600        60
    41.6200        66
    41.6800        64
    41.7400        70
    41.8000        72
    41.8600        84
    41.9200        78
    41.9800        72
    42.0400        56
    42.1000        52
    42.1600        62
    42.2200        58
    42.2800        66
    42.3400        76
    42.4000        74
    42.4600        74
    42.5200        82
    42.5800        82
    42.6400        96
    42.7000        86
    42.7600        82
    42.8200        70
    42.8800        70
    42.9400        88
    43.0000        70
    43.0600        84
    43.1200        88
    43.1800       134
    43.2400       374
    43.3000       450
    43.3600       298
    43.4200       246
    43.4800       116
    43.5400        70
    43.6000        62
    43.6600        54
    43.7200        70
    43.7800        78
    43.8400        76
    43.9000        62
    43.9600        76
    44.0200        58
    44.0800        52
    44.1400        58
    44.2000        60
    44.2600        46
    44.3200        62
    44.3800        48
    44.4400        46
    44.5000        46
    44.5600        58
    44.6200        66
    44.6800        64
    44.7400        58
    44.8000        60
    44.8600        50
    44.9200        58
    44.9800        72
    45.0400        74
    45.1000        60
    45.1600        52
    45.2200        52
    45.2800        58
    45.3400        46
    45.4000        48
    45.4600        62
    45.5200        52
    45.5800        60
    45.6400        42
    45.7000        56
    45.7600        54
    45.8200        60
    45.8800        42
    45.9400        42
    46.0000        50
    46.0600        46
    46.1200        42
    46.1800        42
    46.2400        40
    46.3000        54
    46.3600        64
    46.4200        44
    46.4800        44
    46.5400        46
    46.6000        46
    46.6600        54
    46.7200        46
    46.7800        64
    46.8400        66
    46.9000        74
    46.9600        84
    47.0200        50
    47.0800        42
    47.1400        44
    47.2000        46
    47.2600        42
    47.3200        54
    47.3800        60
    47.4400        92
    47.5000        88
    47.5600       108
    47.6200        96
    47.6800        68
    47.7400        62
    47.8000        46
    47.8600        56
    47.9200        44
    47.9800        46
    48.0400        64
    48.1000        56
    48.1600        56
    48.2200        70
    48.2800        40
    48.3400        54
    48.4000        68
    48.4600        66
    48.5200        80
    48.5800        68
    48.6400       164
    48.7000       264
    48.7600       246
    48.8200       202
    48.8800       184
    48.9400        78
    49.0000        56
    49.0600        72
    49.1200        66
    49.1800       108
    49.2400        88
    49.3000        82
    49.3600        92
    49.4200        58
    49.4800        62
    49.5400        60
    49.6000        62
    49.6600        44
    49.7200        54
    49.7800        62
    49.8400        50
    49.9000        54
    49.9600        62
    50.0200        74
    50.0800        82
    50.1400        72
    50.2000        64
    50.2600        58
    50.3200        60
    50.3800       104
    50.4400       128
    50.5000       170
    50.5600       336
    50.6200       294
    50.6800       222
    50.7400       192
    50.8000       140
    50.8600        78
    50.9200        64
    50.9800        58
    51.0400        76
    51.1000        60
    51.1600        72
    51.2200        74
    51.2800        48
    51.3400        44
    51.4000        56
    51.4600        54
    51.5200        68
    51.5800       144
    51.6400       102
    51.7000       134
    51.7600        80
    51.8200        58
    51.8800        42
    51.9400        40
    52.0000        46
    52.0600        50
    52.1200        50
    52.1800        42
    52.2400        48
    52.3000        38
    52.3600        46
    52.4200        56
    52.4800        44
    52.5400        42
    52.6000        58
    52.6600        52
    52.7200        56
    52.7800        70
    52.8400        78
    52.9000        86
    52.9600        86
    53.0200       154
    53.0800       204
    53.1400       210
    53.2000       210
    53.2600       144
    53.3200       112
    53.3800        92
    53.4400        42
    53.5000        44
    53.5600        52
    53.6200        56
    53.6800        60
    53.7400        46
    53.8000        32
    53.8600        48
    53.9200        62
    53.9800        62
    54.0400        88
    54.1000        84
    54.1600       154
    54.2200       168
    54.2800       110
    54.3400       112
    54.4000        82
    54.4600        74
    54.5200        56
    54.5800        56
    54.6400        60
    54.7000        54
    54.7600        64
    54.8200        52
    54.8800        50
    54.9400        58
    55.0000        62
    55.0600        66
    55.1200       112
    55.1800       118
    55.2400       104
    55.3000        70
    55.3600        70
    55.4200        56
    55.4800        44
    55.5400        52
    55.6000        46
    55.6600        52
    55.7200        62
    55.7800        90
    55.8400       114
    55.9000        94
    55.9600        82
    56.0200        78
    56.0800        50
    56.1400        88
    56.2000        72
    56.2600        86
    56.3200        78
    56.3800        48
    56.4400        52
    56.5000        42
    56.5600        52
    56.6200        46
    56.6800        34
    56.7400        46
    56.8000        48
    56.8600        48
    56.9200        54
    56.9800        46
    57.0400        46
    57.1000        56
    57.1600        34
    57.2200        44
    57.2800        50
    57.3400        52
    57.4000        46
    57.4600        38
    57.5200        54
    57.5800        52
    57.6400        42
    57.7000        40
    57.7600        56
    57.8200        42
    57.8800        44
    57.9400        38
    58.0000        68
    58.0600        50
    58.1200        64
    58.1800        64
    58.2400        56
    58.3000        50
    58.3600        50
    58.4200        48
    58.4800        36
    58.5400        44
    58.6000        48
    58.6600        50
    58.7200        38
    58.7800        36
    58.8400        52
    58.9000        44
    58.9600        34
    59.0200        46
    59.0800        56
    59.1400        52
    59.2000        42
    59.2600        68
    59.3200       144
    59.3800       158
    59.4400       110
    59.5000       146
    59.5600       110
    59.6200        68
    59.6800        60
    59.7400        62
    59.8000        62
    59.8600        80
    59.9200        72
    59.9800        82
    60.0400        46
    60.1000        66
    60.1600        52
    60.2200        54
    60.2800        44
    60.3400        46
    60.4000        44
    60.4600        46
    60.5200        52
    60.5800        62
    60.6400        38
    60.7000        58
    60.7600        76
    60.8200       144
    60.8800       192
    60.9400       100
    61.0000       122
    61.0600       130
    61.1200       134
    61.1800       108
    61.2400        76
    61.3000        86
    61.3600        70
    61.4200        74
    61.4800        50
    61.5400        54
    61.6000        50
    61.6600        40
    61.7200        58
    61.7800        44
    61.8400        50
    61.9000        68
    61.9600        52
    62.0200        42
    62.0800        56
    62.1400        66
    62.2000        48
    62.2600        50
    62.3200        54
    62.3800        66
    62.4400       108
    62.5000        88
    62.5600       106
    62.6200        80
    62.6800        78
    62.7400        66
    62.8000        52
    62.8600        44
    62.9200        42
    62.9800        54
    63.0400        46
    63.1000        66
    63.1600        58
    63.2200        46
    63.2800        46
    63.3400        40
    63.4000        42
    63.4600        42
    63.5200        56
    63.5800        46
    63.6400        40
    63.7000        60
    63.7600        44
    63.8200        36
    63.8800        50
    63.9400        60
    64.0000        58
    64.0600        52
    64.1200        52
    64.1800        64
    64.2400        66
    64.3000        68
    64.3600        60
    64.4200        68
    64.4800        52
    64.5400        48
    64.6000        46
    64.6600        64
    64.7200        44
    64.7800        40
    64.8400        42
    64.9000        46
    64.9600        32
    65.0000        30