File: sl1/usgs/library06/DESCRIPT/new_xrd_results_to_be_added/Rhonda_Driscoll_xrd_runs/WS219---Goethite.txt
/////////////////////////////////////////////////////////////////////////////////
/// Profile Data Ascii Dump (XRD)                                             ///
/////////////////////////////////////////////////////////////////////////////////

  Group     : Swayze
  Data      : WS219
  File Name : WS219.RAW

# Profile Datafile
          comment             = Goethite
          date & time         = 08-03-14 06:24:56

# Measurement Condition
    X-ray tube
          target              = Cu
          voltage             = 40.0 (kV)
          current             = 30.0 (mA)
    Slits
          divergence slit     = 2.00000 (deg)
          scatter slit        = 2.00000 (deg)
          receiving slit      = 0.15000 (mm)
    Scanning
          drive axis          = Theta-2Theta
          scan range          =    4.000 -   65.000
          scan mode           = Continuous Scan
          scan speed          =   2.0000 (deg/min)
          sampling pitch      =   0.0200 (deg)
          preset time         =   0.60 (sec)

# Data      [ Total No. = 3051 ]
  <2Theta>   <   I   >
     4.0000       182
     4.0600       202
     4.1200       218
     4.1800       228
     4.2400       200
     4.3000       172
     4.3600       192
     4.4200       166
     4.4800       176
     4.5400       204
     4.6000       180
     4.6600       158
     4.7200       170
     4.7800       160
     4.8400       164
     4.9000       178
     4.9600       192
     5.0200       178
     5.0800       180
     5.1400       168
     5.2000       170
     5.2600       158
     5.3200       166
     5.3800       180
     5.4400       184
     5.5000       180
     5.5600       182
     5.6200       152
     5.6800       176
     5.7400       178
     5.8000       156
     5.8600       182
     5.9200       146
     5.9800       178
     6.0400       194
     6.1000       140
     6.1600       172
     6.2200       150
     6.2800       144
     6.3400       168
     6.4000       146
     6.4600       178
     6.5200       136
     6.5800       128
     6.6400       132
     6.7000       122
     6.7600       128
     6.8200       138
     6.8800       132
     6.9400       102
     7.0000       122
     7.0600       126
     7.1200       118
     7.1800       128
     7.2400       118
     7.3000       144
     7.3600       102
     7.4200       140
     7.4800       122
     7.5400       114
     7.6000       120
     7.6600       118
     7.7200       116
     7.7800       122
     7.8400       124
     7.9000       132
     7.9600       108
     8.0200       110
     8.0800       124
     8.1400       128
     8.2000       128
     8.2600       112
     8.3200       124
     8.3800       116
     8.4400       116
     8.5000       120
     8.5600       104
     8.6200       138
     8.6800        94
     8.7400       140
     8.8000       136
     8.8600       120
     8.9200       120
     8.9800       134
     9.0400       104
     9.1000       122
     9.1600       122
     9.2200       100
     9.2800       116
     9.3400       130
     9.4000       124
     9.4600       110
     9.5200       118
     9.5800       110
     9.6400       108
     9.7000       112
     9.7600       118
     9.8200       112
     9.8800       118
     9.9400       122
    10.0000       112
    10.0600        82
    10.1200       112
    10.1800       104
    10.2400       106
    10.3000        94
    10.3600       130
    10.4200       106
    10.4800        98
    10.5400       110
    10.6000       112
    10.6600       100
    10.7200        92
    10.7800        86
    10.8400       106
    10.9000        98
    10.9600        70
    11.0200        96
    11.0800        92
    11.1400       100
    11.2000        86
    11.2600       102
    11.3200        96
    11.3800        90
    11.4400       100
    11.5000       100
    11.5600        82
    11.6200        88
    11.6800        90
    11.7400        92
    11.8000        70
    11.8600        96
    11.9200       100
    11.9800       100
    12.0400        96
    12.1000        88
    12.1600        90
    12.2200       102
    12.2800        88
    12.3400        88
    12.4000        82
    12.4600        80
    12.5200        92
    12.5800        90
    12.6400        76
    12.7000        84
    12.7600        62
    12.8200        80
    12.8800        82
    12.9400        86
    13.0000        68
    13.0600        94
    13.1200        74
    13.1800        74
    13.2400        86
    13.3000        78
    13.3600        82
    13.4200        74
    13.4800        70
    13.5400        72
    13.6000        80
    13.6600        90
    13.7200        96
    13.7800       110
    13.8400       120
    13.9000       120
    13.9600       140
    14.0200       190
    14.0800       182
    14.1400       100
    14.2000       100
    14.2600        72
    14.3200        92
    14.3800        78
    14.4400        72
    14.5000        68
    14.5600        84
    14.6200        64
    14.6800        66
    14.7400        68
    14.8000        62
    14.8600        64
    14.9200        70
    14.9800        64
    15.0400        62
    15.1000        64
    15.1600        54
    15.2200        88
    15.2800        62
    15.3400        74
    15.4000        68
    15.4600        72
    15.5200        48
    15.5800        52
    15.6400        64
    15.7000        60
    15.7600        60
    15.8200        60
    15.8800        44
    15.9400        56
    16.0000        58
    16.0600        54
    16.1200        64
    16.1800        52
    16.2400        48
    16.3000        48
    16.3600        58
    16.4200        72
    16.4800        70
    16.5400        70
    16.6000        60
    16.6600        62
    16.7200        60
    16.7800        64
    16.8400        58
    16.9000        64
    16.9600        58
    17.0200        56
    17.0800        70
    17.1400        56
    17.2000        72
    17.2600        60
    17.3200        66
    17.3800        60
    17.4400        46
    17.5000        72
    17.5600        74
    17.6200        74
    17.6800        70
    17.7400        78
    17.8000        76
    17.8600        62
    17.9200        70
    17.9800        70
    18.0400        66
    18.1000        68
    18.1600        54
    18.2200        48
    18.2800        58
    18.3400        62
    18.4000        70
    18.4600        70
    18.5200        44
    18.5800        66
    18.6400        62
    18.7000        56
    18.7600        52
    18.8200        66
    18.8800        48
    18.9400        52
    19.0000        62
    19.0600        74
    19.1200        50
    19.1800        46
    19.2400        64
    19.3000        66
    19.3600        56
    19.4200        58
    19.4800        50
    19.5400        58
    19.6000        80
    19.6600        72
    19.7200        64
    19.7800        64
    19.8400        68
    19.9000        54
    19.9600        54
    20.0200        62
    20.0800        66
    20.1400        70
    20.2000        72
    20.2600        76
    20.3200        58
    20.3800        66
    20.4400        86
    20.5000        76
    20.5600        82
    20.6200       110
    20.6800       136
    20.7400       308
    20.8000       290
    20.8600       140
    20.9200       140
    20.9800       138
    21.0400       182
    21.1000       184
    21.1600       166
    21.2200       150
    21.2800       110
    21.3400       104
    21.4000        98
    21.4600        78
    21.5200        90
    21.5800        76
    21.6400        54
    21.7000        74
    21.7600        80
    21.8200        68
    21.8800        68
    21.9400        68
    22.0000        58
    22.0600        54
    22.1200        54
    22.1800        52
    22.2400        58
    22.3000        50
    22.3600        66
    22.4200        62
    22.4800        52
    22.5400        62
    22.6000        50
    22.6600        58
    22.7200        50
    22.7800        62
    22.8400        56
    22.9000        40
    22.9600        62
    23.0200        60
    23.0800        62
    23.1400        64
    23.2000        56
    23.2600        40
    23.3200        74
    23.3800        56
    23.4400        44
    23.5000        42
    23.5600        52
    23.6200        34
    23.6800        46
    23.7400        50
    23.8000        42
    23.8600        48
    23.9200        54
    23.9800        44
    24.0400        38
    24.1000        50
    24.1600        66
    24.2200        46
    24.2800        50
    24.3400        44
    24.4000        56
    24.4600        60
    24.5200        56
    24.5800        66
    24.6400        56
    24.7000        58
    24.7600        60
    24.8200        68
    24.8800        58
    24.9400        68
    25.0000        44
    25.0600        50
    25.1200        54
    25.1800        72
    25.2400        40
    25.3000        64
    25.3600        54
    25.4200        60
    25.4800        60
    25.5400        50
    25.6000        58
    25.6600        46
    25.7200        46
    25.7800        56
    25.8400        50
    25.9000        48
    25.9600        48
    26.0200        76
    26.0800        66
    26.1400        76
    26.2000        80
    26.2600        90
    26.3200       118
    26.3800       296
    26.4400       414
    26.5000       644
    26.5600       758
    26.6200       422
    26.6800       178
    26.7400       122
    26.8000       124
    26.8600       142
    26.9200       186
    26.9800       206
    27.0400       130
    27.1000        88
    27.1600        66
    27.2200        56
    27.2800        46
    27.3400        54
    27.4000        58
    27.4600        36
    27.5200        54
    27.5800        46
    27.6400        36
    27.7000        46
    27.7600        30
    27.8200        60
    27.8800        50
    27.9400        36
    28.0000        48
    28.0600        40
    28.1200        40
    28.1800        36
    28.2400        46
    28.3000        54
    28.3600        36
    28.4200        40
    28.4800        46
    28.5400        38
    28.6000        32
    28.6600        38
    28.7200        40
    28.7800        40
    28.8400        36
    28.9000        36
    28.9600        40
    29.0200        38
    29.0800        36
    29.1400        48
    29.2000        44
    29.2600        32
    29.3200        50
    29.3800        32
    29.4400        40
    29.5000        46
    29.5600        40
    29.6200        40
    29.6800        40
    29.7400        54
    29.8000        56
    29.8600        48
    29.9200        52
    29.9800        56
    30.0400        46
    30.1000        50
    30.1600        40
    30.2200        34
    30.2800        54
    30.3400        38
    30.4000        28
    30.4600        50
    30.5200        38
    30.5800        44
    30.6400        36
    30.7000        36
    30.7600        36
    30.8200        38
    30.8800        38
    30.9400        40
    31.0000        46
    31.0600        46
    31.1200        44
    31.1800        44
    31.2400        42
    31.3000        42
    31.3600        40
    31.4200        28
    31.4800        42
    31.5400        52
    31.6000        40
    31.6600        54
    31.7200        44
    31.7800        44
    31.8400        36
    31.9000        44
    31.9600        40
    32.0200        36
    32.0800        54
    32.1400        46
    32.2000        50
    32.2600        32
    32.3200        56
    32.3800        46
    32.4400        44
    32.5000        46
    32.5600        36
    32.6200        42
    32.6800        64
    32.7400        42
    32.8000        84
    32.8600        62
    32.9200        76
    32.9800        80
    33.0400        92
    33.1000        92
    33.1600       124
    33.2200       104
    33.2800       100
    33.3400        70
    33.4000        66
    33.4600        60
    33.5200        58
    33.5800        60
    33.6400        50
    33.7000        52
    33.7600        54
    33.8200        48
    33.8800        40
    33.9400        36
    34.0000        54
    34.0600        46
    34.1200        48
    34.1800        40
    34.2400        64
    34.3000        54
    34.3600        60
    34.4200        64
    34.4800        64
    34.5400        70
    34.6000        96
    34.6600       110
    34.7200        76
    34.7800        68
    34.8400        66
    34.9000        62
    34.9600        60
    35.0200        66
    35.0800        66
    35.1400        54
    35.2000        58
    35.2600        50
    35.3200        66
    35.3800        64
    35.4400        60
    35.5000        74
    35.5600        68
    35.6200        48
    35.6800        56
    35.7400        72
    35.8000        68
    35.8600        68
    35.9200       104
    35.9800       136
    36.0400       136
    36.1000       164
    36.1600       210
    36.2200       218
    36.2800       212
    36.3400       188
    36.4000       178
    36.4600       210
    36.5200       202
    36.5800       200
    36.6400       176
    36.7000       158
    36.7600       142
    36.8200       120
    36.8800        94
    36.9400        68
    37.0000        70
    37.0600        62
    37.1200        52
    37.1800        42
    37.2400        52
    37.3000        50
    37.3600        46
    37.4200        50
    37.4800        60
    37.5400        44
    37.6000        50
    37.6600        48
    37.7200        46
    37.7800        64
    37.8400        72
    37.9000        76
    37.9600        74
    38.0200        88
    38.0800        64
    38.1400        48
    38.2000        64
    38.2600        46
    38.3200        54
    38.3800        58
    38.4400        44
    38.5000        48
    38.5600        42
    38.6200        34
    38.6800        48
    38.7400        48
    38.8000        52
    38.8600        48
    38.9200        52
    38.9800        38
    39.0400        44
    39.1000        50
    39.1600        50
    39.2200        46
    39.2800        92
    39.3400        92
    39.4000        74
    39.4600        68
    39.5200        56
    39.5800        38
    39.6400        54
    39.7000        56
    39.7600        74
    39.8200        62
    39.8800        78
    39.9400        82
    40.0000        64
    40.0600        72
    40.1200        60
    40.1800        78
    40.2400        66
    40.3000        78
    40.3600        38
    40.4200        64
    40.4800        50
    40.5400        46
    40.6000        44
    40.6600        42
    40.7200        46
    40.7800        44
    40.8400        56
    40.9000        56
    40.9600        48
    41.0200        74
    41.0800        78
    41.1400       102
    41.2000        58
    41.2600        74
    41.3200        60
    41.3800        62
    41.4400        48
    41.5000        42
    41.5600        50
    41.6200        40
    41.6800        38
    41.7400        30
    41.8000        38
    41.8600        56
    41.9200        34
    41.9800        34
    42.0400        32
    42.1000        26
    42.1600        38
    42.2200        46
    42.2800        62
    42.3400        78
    42.4000        60
    42.4600        64
    42.5200        48
    42.5800        30
    42.6400        40
    42.7000        32
    42.7600        38
    42.8200        36
    42.8800        34
    42.9400        28
    43.0000        40
    43.0600        40
    43.1200        34
    43.1800        62
    43.2400        56
    43.3000        44
    43.3600        48
    43.4200        48
    43.4800        38
    43.5400        34
    43.6000        30
    43.6600        50
    43.7200        30
    43.7800        32
    43.8400        24
    43.9000        48
    43.9600        50
    44.0200        30
    44.0800        40
    44.1400        44
    44.2000        38
    44.2600        32
    44.3200        30
    44.3800        40
    44.4400        28
    44.5000        32
    44.5600        28
    44.6200        42
    44.6800        28
    44.7400        34
    44.8000        58
    44.8600        28
    44.9200        32
    44.9800        44
    45.0400        42
    45.1000        36
    45.1600        32
    45.2200        46
    45.2800        34
    45.3400        38
    45.4000        50
    45.4600        48
    45.5200        38
    45.5800        56
    45.6400        54
    45.7000        76
    45.7600        34
    45.8200        52
    45.8800        54
    45.9400        32
    46.0000        30
    46.0600        38
    46.1200        30
    46.1800        38
    46.2400        44
    46.3000        32
    46.3600        56
    46.4200        48
    46.4800        60
    46.5400        74
    46.6000        82
    46.6600       108
    46.7200       114
    46.7800       128
    46.8400       126
    46.9000        88
    46.9600        64
    47.0200        44
    47.0800        62
    47.1400        52
    47.2000        48
    47.2600        62
    47.3200        56
    47.3800        32
    47.4400        40
    47.5000        34
    47.5600        42
    47.6200        42
    47.6800        38
    47.7400        34
    47.8000        40
    47.8600        32
    47.9200        34
    47.9800        36
    48.0400        36
    48.1000        42
    48.1600        34
    48.2200        36
    48.2800        34
    48.3400        40
    48.4000        32
    48.4600        34
    48.5200        40
    48.5800        26
    48.6400        36
    48.7000        46
    48.7600        38
    48.8200        38
    48.8800        44
    48.9400        42
    49.0000        54
    49.0600        42
    49.1200        52
    49.1800        58
    49.2400        50
    49.3000        42
    49.3600        40
    49.4200        46
    49.4800        50
    49.5400        40
    49.6000        40
    49.6600        48
    49.7200        42
    49.7800        38
    49.8400        34
    49.9000        60
    49.9600       124
    50.0200       120
    50.0800       122
    50.1400        96
    50.2000        66
    50.2600        42
    50.3200        40
    50.3800        54
    50.4400        50
    50.5000        52
    50.5600        46
    50.6200        54
    50.6800        42
    50.7400        52
    50.8000        38
    50.8600        28
    50.9200        30
    50.9800        40
    51.0400        40
    51.1000        44
    51.1600        34
    51.2200        48
    51.2800        38
    51.3400        46
    51.4000        40
    51.4600        32
    51.5200        36
    51.5800        34
    51.6400        38
    51.7000        40
    51.7600        32
    51.8200        28
    51.8800        24
    51.9400        32
    52.0000        38
    52.0600        46
    52.1200        34
    52.1800        38
    52.2400        38
    52.3000        56
    52.3600        56
    52.4200        60
    52.4800        54
    52.5400        68
    52.6000        86
    52.6600        98
    52.7200        80
    52.7800        76
    52.8400        72
    52.9000        70
    52.9600        82
    53.0200        88
    53.0800        96
    53.1400       102
    53.2000        88
    53.2600       110
    53.3200        80
    53.3800        80
    53.4400        78
    53.5000        70
    53.5600        62
    53.6200        52
    53.6800        54
    53.7400        38
    53.8000        48
    53.8600        48
    53.9200        48
    53.9800        52
    54.0400        62
    54.1000        54
    54.1600        58
    54.2200        52
    54.2800        66
    54.3400        52
    54.4000        48
    54.4600        38
    54.5200        40
    54.5800        50
    54.6400        46
    54.7000        64
    54.7600        74
    54.8200        84
    54.8800        68
    54.9400        68
    55.0000        48
    55.0600        52
    55.1200        52
    55.1800        50
    55.2400        54
    55.3000        58
    55.3600        46
    55.4200        52
    55.4800        38
    55.5400        46
    55.6000        40
    55.6600        46
    55.7200        32
    55.7800        38
    55.8400        30
    55.9000        44
    55.9600        40
    56.0200        48
    56.0800        28
    56.1400        40
    56.2000        34
    56.2600        32
    56.3200        40
    56.3800        30
    56.4400        58
    56.5000        40
    56.5600        36
    56.6200        40
    56.6800        52
    56.7400        40
    56.8000        40
    56.8600        46
    56.9200        24
    56.9800        54
    57.0400        34
    57.1000        56
    57.1600        42
    57.2200        48
    57.2800        46
    57.3400        46
    57.4000        38
    57.4600        40
    57.5200        48
    57.5800        36
    57.6400        44
    57.7000        44
    57.7600        40
    57.8200        34
    57.8800        34
    57.9400        50
    58.0000        42
    58.0600        38
    58.1200        36
    58.1800        38
    58.2400        42
    58.3000        48
    58.3600        42
    58.4200        32
    58.4800        38
    58.5400        48
    58.6000        54
    58.6600        50
    58.7200        56
    58.7800        58
    58.8400        98
    58.9000        86
    58.9600        66
    59.0200        78
    59.0800        64
    59.1400        66
    59.2000        64
    59.2600        68
    59.3200        48
    59.3800        50
    59.4400        60
    59.5000        42
    59.5600        38
    59.6200        38
    59.6800        72
    59.7400        56
    59.8000        76
    59.8600        94
    59.9200        68
    59.9800        74
    60.0400        66
    60.1000        70
    60.1600        52
    60.2200        52
    60.2800        52
    60.3400        42
    60.4000        44
    60.4600        70
    60.5200        68
    60.5800        72
    60.6400        86
    60.7000        70
    60.7600        70
    60.8200        58
    60.8800        46
    60.9400        48
    61.0000        38
    61.0600        58
    61.1200        42
    61.1800        74
    61.2400        66
    61.3000        80
    61.3600        64
    61.4200        68
    61.4800        60
    61.5400        68
    61.6000        50
    61.6600        44
    61.7200        40
    61.7800        34
    61.8400        44
    61.9000        44
    61.9600        42
    62.0200        44
    62.0800        68
    62.1400        40
    62.2000        52
    62.2600        54
    62.3200        46
    62.3800        34
    62.4400        50
    62.5000        50
    62.5600        44
    62.6200        32
    62.6800        46
    62.7400        32
    62.8000        34
    62.8600        48
    62.9200        36
    62.9800        36
    63.0400        50
    63.1000        50
    63.1600        40
    63.2200        32
    63.2800        32
    63.3400        34
    63.4000        38
    63.4600        48
    63.5200        30
    63.5800        44
    63.6400        50
    63.7000        38
    63.7600        54
    63.8200        54
    63.8800        62
    63.9400        74
    64.0000        66
    64.0600        64
    64.1200        68
    64.1800        56
    64.2400        42
    64.3000        28
    64.3600        44
    64.4200        36
    64.4800        38
    64.5400        42
    64.6000        46
    64.6600        36
    64.7200        56
    64.7800        50
    64.8400        62
    64.9000        64
    64.9600        26
    65.0000        48