File: sl1/usgs/library06/DESCRIPT/new_xrd_results_to_be_added/Rhonda_Driscoll_xrd_runs/WS220-Goethite.txt
/////////////////////////////////////////////////////////////////////////////////
/// Profile Data Ascii Dump (XRD)                                             ///
/////////////////////////////////////////////////////////////////////////////////

  Group     : Swayze
  Data      : WS220
  File Name : WS220.RAW

# Profile Datafile
          comment             = Geothite
          date & time         = 08-04-08 07:29:36

# Measurement Condition
    X-ray tube
          target              = Cu
          voltage             = 40.0 (kV)
          current             = 30.0 (mA)
    Slits
          divergence slit     = 2.00000 (deg)
          scatter slit        = 2.00000 (deg)
          receiving slit      = 0.15000 (mm)
    Scanning
          drive axis          = Theta-2Theta
          scan range          =    4.000 -   65.000
          scan mode           = Continuous Scan
          scan speed          =   2.0000 (deg/min)
          sampling pitch      =   0.0200 (deg)
          preset time         =   0.60 (sec)

# Data      [ Total No. = 3051 ]
  <2Theta>   <   I   >
     4.0000       194
     4.0600       190
     4.1200       200
     4.1800       196
     4.2400       168
     4.3000       170
     4.3600       212
     4.4200       208
     4.4800       142
     4.5400       180
     4.6000       172
     4.6600       182
     4.7200       152
     4.7800       170
     4.8400       152
     4.9000       156
     4.9600       190
     5.0200       162
     5.0800       170
     5.1400       170
     5.2000       152
     5.2600       148
     5.3200       158
     5.3800       166
     5.4400       162
     5.5000       158
     5.5600       168
     5.6200       148
     5.6800       152
     5.7400       156
     5.8000       156
     5.8600       156
     5.9200       164
     5.9800       152
     6.0400       166
     6.1000       168
     6.1600       166
     6.2200       152
     6.2800       140
     6.3400       158
     6.4000       132
     6.4600       148
     6.5200       130
     6.5800       130
     6.6400       146
     6.7000       136
     6.7600       134
     6.8200       130
     6.8800       130
     6.9400       114
     7.0000       128
     7.0600       136
     7.1200       122
     7.1800       118
     7.2400       110
     7.3000       136
     7.3600       136
     7.4200       142
     7.4800       122
     7.5400       118
     7.6000       106
     7.6600       132
     7.7200       106
     7.7800       140
     7.8400       130
     7.9000       114
     7.9600       128
     8.0200        96
     8.0800       112
     8.1400       134
     8.2000       126
     8.2600       122
     8.3200       130
     8.3800       118
     8.4400       104
     8.5000       114
     8.5600       120
     8.6200       144
     8.6800       136
     8.7400       114
     8.8000       138
     8.8600       138
     8.9200       126
     8.9800       138
     9.0400        94
     9.1000        98
     9.1600       102
     9.2200       124
     9.2800       104
     9.3400       104
     9.4000       132
     9.4600       128
     9.5200       130
     9.5800       122
     9.6400       134
     9.7000        92
     9.7600       110
     9.8200       110
     9.8800       116
     9.9400       116
    10.0000       106
    10.0600       102
    10.1200        94
    10.1800        92
    10.2400       106
    10.3000       106
    10.3600        98
    10.4200        94
    10.4800       100
    10.5400       106
    10.6000       112
    10.6600        96
    10.7200        98
    10.7800       112
    10.8400        92
    10.9000        98
    10.9600       100
    11.0200        96
    11.0800        98
    11.1400        86
    11.2000        84
    11.2600        98
    11.3200        98
    11.3800       100
    11.4400        80
    11.5000       104
    11.5600        86
    11.6200        92
    11.6800        78
    11.7400        76
    11.8000        82
    11.8600        90
    11.9200        96
    11.9800        88
    12.0400        72
    12.1000        90
    12.1600        72
    12.2200        92
    12.2800        78
    12.3400        68
    12.4000        88
    12.4600        86
    12.5200        86
    12.5800        84
    12.6400        82
    12.7000        80
    12.7600        68
    12.8200        76
    12.8800        66
    12.9400        74
    13.0000        74
    13.0600        84
    13.1200        70
    13.1800        84
    13.2400        50
    13.3000        72
    13.3600        74
    13.4200        76
    13.4800        76
    13.5400        62
    13.6000        84
    13.6600        72
    13.7200        62
    13.7800        62
    13.8400        68
    13.9000        82
    13.9600        58
    14.0200        56
    14.0800        62
    14.1400        84
    14.2000        78
    14.2600        60
    14.3200        82
    14.3800        72
    14.4400        60
    14.5000        74
    14.5600        70
    14.6200        52
    14.6800        58
    14.7400        60
    14.8000        66
    14.8600        52
    14.9200        60
    14.9800        56
    15.0400        62
    15.1000        48
    15.1600        58
    15.2200        70
    15.2800        74
    15.3400        56
    15.4000        62
    15.4600        62
    15.5200        66
    15.5800        66
    15.6400        78
    15.7000        58
    15.7600        72
    15.8200        72
    15.8800        52
    15.9400        70
    16.0000        66
    16.0600        66
    16.1200        54
    16.1800        66
    16.2400        52
    16.3000        38
    16.3600        58
    16.4200        78
    16.4800        60
    16.5400        52
    16.6000        60
    16.6600        72
    16.7200        38
    16.7800        72
    16.8400        54
    16.9000        66
    16.9600        52
    17.0200        54
    17.0800        70
    17.1400        64
    17.2000        56
    17.2600        52
    17.3200        62
    17.3800        58
    17.4400        66
    17.5000        44
    17.5600        68
    17.6200        70
    17.6800        74
    17.7400        68
    17.8000        72
    17.8600        56
    17.9200        62
    17.9800        68
    18.0400        62
    18.1000        54
    18.1600        64
    18.2200        60
    18.2800        46
    18.3400        54
    18.4000        70
    18.4600        56
    18.5200        64
    18.5800        48
    18.6400        44
    18.7000        52
    18.7600        68
    18.8200        52
    18.8800        42
    18.9400        54
    19.0000        46
    19.0600        60
    19.1200        56
    19.1800        62
    19.2400        38
    19.3000        60
    19.3600        70
    19.4200        42
    19.4800        66
    19.5400        64
    19.6000        64
    19.6600        62
    19.7200        48
    19.7800        84
    19.8400        46
    19.9000        58
    19.9600        48
    20.0200        58
    20.0800        66
    20.1400        60
    20.2000        52
    20.2600        64
    20.3200        58
    20.3800        88
    20.4400        96
    20.5000       100
    20.5600       130
    20.6200       218
    20.6800       398
    20.7400       754
    20.8000       514
    20.8600       172
    20.9200       136
    20.9800       148
    21.0400       166
    21.1000       156
    21.1600       164
    21.2200       128
    21.2800       104
    21.3400        82
    21.4000        74
    21.4600        72
    21.5200        74
    21.5800        62
    21.6400        66
    21.7000        72
    21.7600        68
    21.8200        52
    21.8800        60
    21.9400        40
    22.0000        66
    22.0600        48
    22.1200        54
    22.1800        56
    22.2400        48
    22.3000        56
    22.3600        54
    22.4200        50
    22.4800        34
    22.5400        52
    22.6000        44
    22.6600        54
    22.7200        50
    22.7800        40
    22.8400        34
    22.9000        56
    22.9600        50
    23.0200        36
    23.0800        52
    23.1400        46
    23.2000        56
    23.2600        40
    23.3200        44
    23.3800        44
    23.4400        46
    23.5000        40
    23.5600        40
    23.6200        50
    23.6800        64
    23.7400        52
    23.8000        54
    23.8600        66
    23.9200        54
    23.9800        52
    24.0400        50
    24.1000        44
    24.1600        34
    24.2200        52
    24.2800        56
    24.3400        52
    24.4000        44
    24.4600        46
    24.5200        54
    24.5800        44
    24.6400        40
    24.7000        40
    24.7600        46
    24.8200        38
    24.8800        54
    24.9400        52
    25.0000        52
    25.0600        48
    25.1200        48
    25.1800        32
    25.2400        48
    25.3000        60
    25.3600        62
    25.4200        46
    25.4800        54
    25.5400        44
    25.6000        50
    25.6600        46
    25.7200        66
    25.7800        58
    25.8400        52
    25.9000        52
    25.9600        68
    26.0200        62
    26.0800        66
    26.1400       122
    26.2000       176
    26.2600       224
    26.3200       330
    26.3800       564
    26.4400      1158
    26.5000      2830
    26.5600      2816
    26.6200      1364
    26.6800       362
    26.7400       108
    26.8000       104
    26.8600        76
    26.9200        66
    26.9800        42
    27.0400        54
    27.1000        48
    27.1600        42
    27.2200        48
    27.2800        34
    27.3400        46
    27.4000        36
    27.4600        42
    27.5200        40
    27.5800        26
    27.6400        32
    27.7000        32
    27.7600        40
    27.8200        48
    27.8800        48
    27.9400        44
    28.0000        42
    28.0600        40
    28.1200        30
    28.1800        54
    28.2400        34
    28.3000        46
    28.3600        42
    28.4200        44
    28.4800        38
    28.5400        36
    28.6000        32
    28.6600        32
    28.7200        36
    28.7800        46
    28.8400        32
    28.9000        28
    28.9600        42
    29.0200        42
    29.0800        40
    29.1400        34
    29.2000        34
    29.2600        34
    29.3200        40
    29.3800        32
    29.4400        34
    29.5000        34
    29.5600        34
    29.6200        38
    29.6800        40
    29.7400        50
    29.8000        26
    29.8600        42
    29.9200        40
    29.9800        38
    30.0400        24
    30.1000        34
    30.1600        42
    30.2200        24
    30.2800        48
    30.3400        30
    30.4000        26
    30.4600        36
    30.5200        36
    30.5800        36
    30.6400        42
    30.7000        40
    30.7600        40
    30.8200        36
    30.8800        38
    30.9400        42
    31.0000        42
    31.0600        36
    31.1200        46
    31.1800        46
    31.2400        40
    31.3000        36
    31.3600        32
    31.4200        48
    31.4800        38
    31.5400        42
    31.6000        54
    31.6600        38
    31.7200        38
    31.7800        46
    31.8400        42
    31.9000        32
    31.9600        32
    32.0200        44
    32.0800        38
    32.1400        42
    32.2000        46
    32.2600        46
    32.3200        44
    32.3800        36
    32.4400        54
    32.5000        48
    32.5600        64
    32.6200        72
    32.6800        54
    32.7400        68
    32.8000        84
    32.8600        94
    32.9200        88
    32.9800       118
    33.0400       110
    33.1000       162
    33.1600       132
    33.2200       114
    33.2800       104
    33.3400        58
    33.4000        56
    33.4600        72
    33.5200        68
    33.5800        48
    33.6400        44
    33.7000        56
    33.7600        50
    33.8200        60
    33.8800        62
    33.9400        46
    34.0000        40
    34.0600        38
    34.1200        48
    34.1800        42
    34.2400        42
    34.3000        54
    34.3600        60
    34.4200        64
    34.4800        76
    34.5400        80
    34.6000        94
    34.6600        70
    34.7200        76
    34.7800        54
    34.8400        58
    34.9000        48
    34.9600        54
    35.0200        50
    35.0800        52
    35.1400        50
    35.2000        78
    35.2600        70
    35.3200        70
    35.3800        68
    35.4400        84
    35.5000       108
    35.5600        90
    35.6200        72
    35.6800        86
    35.7400        88
    35.8000        74
    35.8600        66
    35.9200        80
    35.9800        86
    36.0400        80
    36.1000        92
    36.1600       104
    36.2200       102
    36.2800       150
    36.3400       194
    36.4000       286
    36.4600       336
    36.5200       270
    36.5800       234
    36.6400       166
    36.7000       108
    36.7600       106
    36.8200        76
    36.8800        60
    36.9400        66
    37.0000        48
    37.0600        44
    37.1200        42
    37.1800        44
    37.2400        44
    37.3000        28
    37.3600        38
    37.4200        42
    37.4800        40
    37.5400        34
    37.6000        36
    37.6600        26
    37.7200        28
    37.7800        42
    37.8400        32
    37.9000        46
    37.9600        44
    38.0200        38
    38.0800        38
    38.1400        32
    38.2000        40
    38.2600        36
    38.3200        32
    38.3800        40
    38.4400        32
    38.5000        34
    38.5600        40
    38.6200        38
    38.6800        50
    38.7400        40
    38.8000        38
    38.8600        34
    38.9200        38
    38.9800        38
    39.0400        46
    39.1000        40
    39.1600        56
    39.2200        74
    39.2800       142
    39.3400       192
    39.4000       168
    39.4600       104
    39.5200        74
    39.5800        54
    39.6400        50
    39.7000        48
    39.7600        54
    39.8200        58
    39.8800        70
    39.9400        62
    40.0000        48
    40.0600        70
    40.1200        92
    40.1800       120
    40.2400       110
    40.3000        86
    40.3600        46
    40.4200        48
    40.4800        58
    40.5400        42
    40.6000        40
    40.6600        46
    40.7200        62
    40.7800        64
    40.8400        56
    40.9000        56
    40.9600        60
    41.0200        62
    41.0800        70
    41.1400        56
    41.2000        54
    41.2600        50
    41.3200        48
    41.3800        50
    41.4400        30
    41.5000        40
    41.5600        34
    41.6200        24
    41.6800        52
    41.7400        34
    41.8000        38
    41.8600        30
    41.9200        30
    41.9800        24
    42.0400        38
    42.1000        44
    42.1600        38
    42.2200        88
    42.2800       190
    42.3400       184
    42.4000       120
    42.4600        88
    42.5200        46
    42.5800        42
    42.6400        28
    42.7000        32
    42.7600        32
    42.8200        24
    42.8800        26
    42.9400        26
    43.0000        32
    43.0600        28
    43.1200        36
    43.1800        38
    43.2400        30
    43.3000        38
    43.3600        30
    43.4200        46
    43.4800        28
    43.5400        22
    43.6000        28
    43.6600        32
    43.7200        38
    43.7800        36
    43.8400        30
    43.9000        30
    43.9600        28
    44.0200        30
    44.0800        20
    44.1400        32
    44.2000        36
    44.2600        36
    44.3200        28
    44.3800        20
    44.4400        34
    44.5000        30
    44.5600        40
    44.6200        22
    44.6800        28
    44.7400        26
    44.8000        30
    44.8600        36
    44.9200        36
    44.9800        38
    45.0400        36
    45.1000        38
    45.1600        26
    45.2200        28
    45.2800        22
    45.3400        34
    45.4000        28
    45.4600        28
    45.5200        50
    45.5800        54
    45.6400        94
    45.7000       138
    45.7600       106
    45.8200        92
    45.8800        38
    45.9400        50
    46.0000        24
    46.0600        24
    46.1200        34
    46.1800        26
    46.2400        28
    46.3000        36
    46.3600        30
    46.4200        20
    46.4800        30
    46.5400        32
    46.6000        38
    46.6600        26
    46.7200        30
    46.7800        26
    46.8400        34
    46.9000        34
    46.9600        40
    47.0200        28
    47.0800        42
    47.1400        38
    47.2000        44
    47.2600        34
    47.3200        32
    47.3800        34
    47.4400        22
    47.5000        32
    47.5600        36
    47.6200        18
    47.6800        26
    47.7400        24
    47.8000        22
    47.8600        40
    47.9200        38
    47.9800        28
    48.0400        34
    48.1000        30
    48.1600        26
    48.2200        32
    48.2800        28
    48.3400        28
    48.4000        28
    48.4600        30
    48.5200        42
    48.5800        36
    48.6400        32
    48.7000        32
    48.7600        34
    48.8200        32
    48.8800        42
    48.9400        38
    49.0000        36
    49.0600        40
    49.1200        50
    49.1800        28
    49.2400        32
    49.3000        40
    49.3600        56
    49.4200        42
    49.4800        36
    49.5400        30
    49.6000        36
    49.6600        38
    49.7200        46
    49.7800        66
    49.8400        68
    49.9000       116
    49.9600       304
    50.0200       460
    50.0800       330
    50.1400       258
    50.2000       164
    50.2600        68
    50.3200        60
    50.3800        44
    50.4400        52
    50.5000        50
    50.5600        34
    50.6200        56
    50.6800        44
    50.7400        40
    50.8000        34
    50.8600        28
    50.9200        32
    50.9800        32
    51.0400        32
    51.1000        38
    51.1600        36
    51.2200        34
    51.2800        40
    51.3400        42
    51.4000        40
    51.4600        28
    51.5200        24
    51.5800        28
    51.6400        34
    51.7000        32
    51.7600        24
    51.8200        26
    51.8800        42
    51.9400        34
    52.0000        42
    52.0600        38
    52.1200        42
    52.1800        26
    52.2400        36
    52.3000        32
    52.3600        38
    52.4200        42
    52.4800        38
    52.5400        42
    52.6000        48
    52.6600        44
    52.7200        60
    52.7800        60
    52.8400        72
    52.9000        70
    52.9600        68
    53.0200        90
    53.0800        84
    53.1400        86
    53.2000        72
    53.2600        74
    53.3200        76
    53.3800        56
    53.4400        68
    53.5000        60
    53.5600        54
    53.6200        42
    53.6800        52
    53.7400        62
    53.8000        60
    53.8600        54
    53.9200        50
    53.9800        62
    54.0400        52
    54.1000        46
    54.1600        50
    54.2200        62
    54.2800        50
    54.3400        56
    54.4000        54
    54.4600        46
    54.5200        48
    54.5800        64
    54.6400        78
    54.7000       188
    54.7600       214
    54.8200       140
    54.8800       138
    54.9400        96
    55.0000        60
    55.0600        52
    55.1200        52
    55.1800        92
    55.2400        66
    55.3000        62
    55.3600        64
    55.4200        30
    55.4800        34
    55.5400        30
    55.6000        34
    55.6600        22
    55.7200        42
    55.7800        32
    55.8400        34
    55.9000        26
    55.9600        34
    56.0200        48
    56.0800        42
    56.1400        34
    56.2000        42
    56.2600        26
    56.3200        22
    56.3800        24
    56.4400        30
    56.5000        28
    56.5600        30
    56.6200        32
    56.6800        28
    56.7400        28
    56.8000        32
    56.8600        48
    56.9200        36
    56.9800        50
    57.0400        42
    57.1000        44
    57.1600        48
    57.2200        46
    57.2800        40
    57.3400        46
    57.4000        40
    57.4600        48
    57.5200        32
    57.5800        40
    57.6400        30
    57.7000        46
    57.7600        34
    57.8200        32
    57.8800        32
    57.9400        22
    58.0000        32
    58.0600        42
    58.1200        42
    58.1800        32
    58.2400        28
    58.3000        38
    58.3600        32
    58.4200        46
    58.4800        34
    58.5400        44
    58.6000        48
    58.6600        50
    58.7200        66
    58.7800        60
    58.8400        66
    58.9000        80
    58.9600        66
    59.0200        56
    59.0800        38
    59.1400        36
    59.2000        34
    59.2600        42
    59.3200        46
    59.3800        44
    59.4400        38
    59.5000        38
    59.5600        56
    59.6200        36
    59.6800        60
    59.7400       120
    59.8000       252
    59.8600       296
    59.9200       178
    59.9800       180
    60.0400       160
    60.1000        72
    60.1600        36
    60.2200        34
    60.2800        34
    60.3400        30
    60.4000        24
    60.4600        36
    60.5200        40
    60.5800        34
    60.6400        32
    60.7000        42
    60.7600        40
    60.8200        34
    60.8800        42
    60.9400        32
    61.0000        46
    61.0600        58
    61.1200        50
    61.1800        66
    61.2400        48
    61.3000        76
    61.3600        64
    61.4200        54
    61.4800        46
    61.5400        42
    61.6000        56
    61.6600        52
    61.7200        36
    61.7800        30
    61.8400        38
    61.9000        26
    61.9600        42
    62.0200        36
    62.0800        46
    62.1400        22
    62.2000        50
    62.2600        30
    62.3200        42
    62.3800        40
    62.4400        38
    62.5000        38
    62.5600        46
    62.6200        36
    62.6800        34
    62.7400        40
    62.8000        28
    62.8600        42
    62.9200        48
    62.9800        52
    63.0400        38
    63.1000        36
    63.1600        38
    63.2200        34
    63.2800        48
    63.3400        40
    63.4000        36
    63.4600        38
    63.5200        42
    63.5800        38
    63.6400        50
    63.7000        60
    63.7600        74
    63.8200        84
    63.8800       110
    63.9400       104
    64.0000        98
    64.0600        80
    64.1200        88
    64.1800        60
    64.2400        52
    64.3000        34
    64.3600        38
    64.4200        34
    64.4800        40
    64.5400        26
    64.6000        36
    64.6600        28
    64.7200        34
    64.7800        36
    64.8400        30
    64.9000        30
    64.9600        46
    65.0000        26