File: sl1/usgs/library06/DESCRIPT/new_xrd_results_to_be_added/Rhonda_Driscoll_xrd_runs/WS416-Fluorapatite.txt
/////////////////////////////////////////////////////////////////////////////////
/// Profile Data Ascii Dump (XRD)                                             ///
/////////////////////////////////////////////////////////////////////////////////

  Group     : Swayze
  Data      : WS416
  File Name : WS416.RAW

# Profile Datafile
          comment             = Fluorapatite
          date & time         = 08-04-08 09:29:58

# Measurement Condition
    X-ray tube
          target              = Cu
          voltage             = 40.0 (kV)
          current             = 30.0 (mA)
    Slits
          divergence slit     = 2.00000 (deg)
          scatter slit        = 2.00000 (deg)
          receiving slit      = 0.15000 (mm)
    Scanning
          drive axis          = Theta-2Theta
          scan range          =    4.000 -   65.000
          scan mode           = Continuous Scan
          scan speed          =   2.0000 (deg/min)
          sampling pitch      =   0.0200 (deg)
          preset time         =   0.60 (sec)

# Data      [ Total No. = 3051 ]
  <2Theta>   <   I   >
     4.0000       194
     4.0600       198
     4.1200       180
     4.1800       180
     4.2400       156
     4.3000       168
     4.3600       178
     4.4200       168
     4.4800       178
     4.5400       134
     4.6000       162
     4.6600       152
     4.7200       142
     4.7800       158
     4.8400       154
     4.9000       152
     4.9600       158
     5.0200       144
     5.0800       150
     5.1400       136
     5.2000       138
     5.2600       156
     5.3200       130
     5.3800       126
     5.4400       132
     5.5000       158
     5.5600       154
     5.6200       144
     5.6800       134
     5.7400       146
     5.8000       146
     5.8600       168
     5.9200       118
     5.9800       156
     6.0400       128
     6.1000       150
     6.1600       114
     6.2200       134
     6.2800       164
     6.3400       130
     6.4000       120
     6.4600       120
     6.5200       138
     6.5800       120
     6.6400       118
     6.7000       116
     6.7600       106
     6.8200       108
     6.8800       132
     6.9400        96
     7.0000       100
     7.0600       102
     7.1200       104
     7.1800       116
     7.2400       116
     7.3000       100
     7.3600        90
     7.4200       120
     7.4800       108
     7.5400       108
     7.6000        84
     7.6600       108
     7.7200       104
     7.7800       100
     7.8400       106
     7.9000        90
     7.9600       102
     8.0200       100
     8.0800        88
     8.1400        86
     8.2000        90
     8.2600       114
     8.3200        98
     8.3800        96
     8.4400       118
     8.5000       108
     8.5600       100
     8.6200       116
     8.6800       120
     8.7400        96
     8.8000        84
     8.8600       100
     8.9200       106
     8.9800        92
     9.0400       108
     9.1000        90
     9.1600       116
     9.2200        80
     9.2800        96
     9.3400        94
     9.4000       108
     9.4600       110
     9.5200       118
     9.5800        92
     9.6400        96
     9.7000       110
     9.7600       100
     9.8200        96
     9.8800       108
     9.9400       104
    10.0000       114
    10.0600        90
    10.1200        82
    10.1800        88
    10.2400        90
    10.3000        88
    10.3600        98
    10.4200       102
    10.4800        94
    10.5400        82
    10.6000        74
    10.6600        90
    10.7200        96
    10.7800        86
    10.8400        94
    10.9000        92
    10.9600        62
    11.0200        84
    11.0800       108
    11.1400        84
    11.2000        72
    11.2600        72
    11.3200        74
    11.3800        88
    11.4400        78
    11.5000        80
    11.5600        74
    11.6200        74
    11.6800        76
    11.7400        86
    11.8000        72
    11.8600        62
    11.9200        66
    11.9800        66
    12.0400        62
    12.1000        72
    12.1600        82
    12.2200        72
    12.2800        68
    12.3400        68
    12.4000        62
    12.4600        58
    12.5200        60
    12.5800        78
    12.6400        62
    12.7000        48
    12.7600        66
    12.8200        64
    12.8800        56
    12.9400        76
    13.0000        54
    13.0600        68
    13.1200        64
    13.1800        62
    13.2400        72
    13.3000        70
    13.3600        58
    13.4200        78
    13.4800        60
    13.5400        68
    13.6000        56
    13.6600        56
    13.7200        64
    13.7800        60
    13.8400        52
    13.9000        46
    13.9600        62
    14.0200        62
    14.0800        44
    14.1400        56
    14.2000        66
    14.2600        52
    14.3200        52
    14.3800        50
    14.4400        44
    14.5000        52
    14.5600        60
    14.6200        52
    14.6800        46
    14.7400        54
    14.8000        58
    14.8600        48
    14.9200        50
    14.9800        54
    15.0400        60
    15.1000        54
    15.1600        54
    15.2200        46
    15.2800        50
    15.3400        48
    15.4000        46
    15.4600        48
    15.5200        58
    15.5800        48
    15.6400        36
    15.7000        54
    15.7600        68
    15.8200        60
    15.8800        72
    15.9400        50
    16.0000        52
    16.0600        44
    16.1200        40
    16.1800        52
    16.2400        50
    16.3000        54
    16.3600        54
    16.4200        46
    16.4800        42
    16.5400        44
    16.6000        48
    16.6600        48
    16.7200        56
    16.7800        56
    16.8400        42
    16.9000        44
    16.9600        44
    17.0200        44
    17.0800        38
    17.1400        58
    17.2000        40
    17.2600        36
    17.3200        44
    17.3800        40
    17.4400        50
    17.5000        42
    17.5600        62
    17.6200        48
    17.6800        46
    17.7400        62
    17.8000        50
    17.8600        36
    17.9200        42
    17.9800        48
    18.0400        34
    18.1000        36
    18.1600        38
    18.2200        40
    18.2800        46
    18.3400        42
    18.4000        46
    18.4600        60
    18.5200        30
    18.5800        40
    18.6400        32
    18.7000        48
    18.7600        36
    18.8200        38
    18.8800        34
    18.9400        44
    19.0000        38
    19.0600        32
    19.1200        38
    19.1800        52
    19.2400        42
    19.3000        46
    19.3600        40
    19.4200        54
    19.4800        52
    19.5400        38
    19.6000        48
    19.6600        34
    19.7200        50
    19.7800        34
    19.8400        36
    19.9000        38
    19.9600        34
    20.0200        22
    20.0800        30
    20.1400        34
    20.2000        36
    20.2600        34
    20.3200        40
    20.3800        30
    20.4400        48
    20.5000        32
    20.5600        36
    20.6200        38
    20.6800        48
    20.7400        28
    20.8000        28
    20.8600        52
    20.9200        32
    20.9800        26
    21.0400        30
    21.1000        36
    21.1600        50
    21.2200        36
    21.2800        24
    21.3400        34
    21.4000        38
    21.4600        40
    21.5200        40
    21.5800        38
    21.6400        54
    21.7000        38
    21.7600        46
    21.8200        68
    21.8800       148
    21.9400       132
    22.0000        80
    22.0600        98
    22.1200        80
    22.1800        30
    22.2400        34
    22.3000        30
    22.3600        28
    22.4200        36
    22.4800        36
    22.5400        42
    22.6000        26
    22.6600        40
    22.7200        34
    22.7800        38
    22.8400        48
    22.9000        34
    22.9600        48
    23.0200        34
    23.0800        30
    23.1400        20
    23.2000        40
    23.2600        30
    23.3200        28
    23.3800        24
    23.4400        24
    23.5000        20
    23.5600        44
    23.6200        28
    23.6800        24
    23.7400        30
    23.8000        22
    23.8600        26
    23.9200        26
    23.9800        30
    24.0400        32
    24.1000        28
    24.1600        32
    24.2200        20
    24.2800        34
    24.3400        30
    24.4000        26
    24.4600        38
    24.5200        24
    24.5800        38
    24.6400        28
    24.7000        38
    24.7600        24
    24.8200        32
    24.8800        30
    24.9400        26
    25.0000        28
    25.0600        36
    25.1200        22
    25.1800        30
    25.2400        34
    25.3000        50
    25.3600        34
    25.4200        38
    25.4800        34
    25.5400        36
    25.6000        50
    25.6600        58
    25.7200        94
    25.7800       128
    25.8400       120
    25.9000       112
    25.9600        82
    26.0200        36
    26.0800        38
    26.1400        16
    26.2000        28
    26.2600        28
    26.3200        30
    26.3800        28
    26.4400        24
    26.5000        20
    26.5600        30
    26.6200        36
    26.6800        22
    26.7400        28
    26.8000        20
    26.8600        14
    26.9200        24
    26.9800        30
    27.0400        16
    27.1000        32
    27.1600        24
    27.2200        28
    27.2800        24
    27.3400        14
    27.4000        22
    27.4600        22
    27.5200        26
    27.5800        28
    27.6400        28
    27.7000        28
    27.7600        30
    27.8200        28
    27.8800        32
    27.9400        38
    28.0000        58
    28.0600        62
    28.1200        70
    28.1800        56
    28.2400        32
    28.3000        28
    28.3600        16
    28.4200        20
    28.4800        22
    28.5400        26
    28.6000        22
    28.6600        24
    28.7200        40
    28.7800        22
    28.8400        40
    28.9000        66
    28.9600        52
    29.0200        58
    29.0800        60
    29.1400       164
    29.2000       172
    29.2600        82
    29.3200        38
    29.3800        22
    29.4400        26
    29.5000        22
    29.5600        24
    29.6200        38
    29.6800        20
    29.7400        16
    29.8000        26
    29.8600        16
    29.9200        32
    29.9800        20
    30.0400        18
    30.1000        20
    30.1600        36
    30.2200        22
    30.2800        18
    30.3400        26
    30.4000        24
    30.4600        14
    30.5200        16
    30.5800        18
    30.6400        28
    30.7000        22
    30.7600        30
    30.8200        26
    30.8800        16
    30.9400        22
    31.0000        26
    31.0600        26
    31.1200        36
    31.1800        24
    31.2400        34
    31.3000        38
    31.3600        18
    31.4200        18
    31.4800        36
    31.5400        48
    31.6000        66
    31.6600       100
    31.7200       198
    31.7800       274
    31.8400       326
    31.9000       210
    31.9600       124
    32.0200        86
    32.0800       102
    32.1400       128
    32.2000       212
    32.2600       128
    32.3200        78
    32.3800        54
    32.4400        40
    32.5000        36
    32.5600        26
    32.6200        44
    32.6800        54
    32.7400       110
    32.8000       108
    32.8600       126
    32.9200       174
    32.9800       286
    33.0400       278
    33.1000       370
    33.1600      3120
    33.2200      1396
    33.2800       762
    33.3400       100
    33.4000        38
    33.4600        32
    33.5200        28
    33.5800        38
    33.6400        24
    33.7000        18
    33.7600        30
    33.8200        36
    33.8800        38
    33.9400        54
    34.0000        66
    34.0600        98
    34.1200       138
    34.1800        84
    34.2400        56
    34.3000        34
    34.3600        30
    34.4200        26
    34.4800        26
    34.5400        18
    34.6000        18
    34.6600        18
    34.7200        14
    34.7800        16
    34.8400        18
    34.9000        26
    34.9600        20
    35.0200        30
    35.0800        18
    35.1400        32
    35.2000        18
    35.2600        28
    35.3200        24
    35.3800        22
    35.4400        34
    35.5000        46
    35.5600       134
    35.6200        40
    35.6800        38
    35.7400        14
    35.8000        24
    35.8600        18
    35.9200        24
    35.9800        34
    36.0400        20
    36.1000        16
    36.1600        22
    36.2200        10
    36.2800        14
    36.3400        14
    36.4000        18
    36.4600        22
    36.5200        22
    36.5800        20
    36.6400        20
    36.7000        24
    36.7600        14
    36.8200        22
    36.8800        18
    36.9400        26
    37.0000        14
    37.0600        10
    37.1200        22
    37.1800        16
    37.2400        18
    37.3000        14
    37.3600        18
    37.4200        14
    37.4800        22
    37.5400        16
    37.6000        28
    37.6600        16
    37.7200        22
    37.7800        10
    37.8400        20
    37.9000        26
    37.9600        16
    38.0200        18
    38.0800        14
    38.1400        20
    38.2000         6
    38.2600        16
    38.3200        22
    38.3800        18
    38.4400        20
    38.5000        18
    38.5600        12
    38.6200        20
    38.6800        22
    38.7400        24
    38.8000        28
    38.8600        16
    38.9200        22
    38.9800        18
    39.0400        20
    39.1000        32
    39.1600        46
    39.2200        72
    39.2800        64
    39.3400        80
    39.4000        50
    39.4600        46
    39.5200        18
    39.5800        12
    39.6400        30
    39.7000        38
    39.7600        44
    39.8200        68
    39.8800       118
    39.9400       108
    40.0000        92
    40.0600        58
    40.1200        28
    40.1800        26
    40.2400        18
    40.3000        22
    40.3600        14
    40.4200        28
    40.4800        30
    40.5400        56
    40.6000        58
    40.6600        56
    40.7200        26
    40.7800        22
    40.8400        26
    40.9000        12
    40.9600        10
    41.0200        22
    41.0800        20
    41.1400        10
    41.2000        14
    41.2600        16
    41.3200        26
    41.3800        22
    41.4400        22
    41.5000        24
    41.5600        18
    41.6200        14
    41.6800        14
    41.7400        16
    41.8000        14
    41.8600        22
    41.9200        18
    41.9800        32
    42.0400        38
    42.1000        58
    42.1600        58
    42.2200        42
    42.2800        22
    42.3400        38
    42.4000        34
    42.4600        26
    42.5200        30
    42.5800        20
    42.6400        20
    42.7000        22
    42.7600        16
    42.8200        18
    42.8800        18
    42.9400        16
    43.0000        16
    43.0600        12
    43.1200        18
    43.1800        10
    43.2400        16
    43.3000        16
    43.3600        14
    43.4200        12
    43.4800        18
    43.5400        20
    43.6000        18
    43.6600        20
    43.7200        22
    43.7800        26
    43.8400        28
    43.9000        36
    43.9600        32
    44.0200        30
    44.0800        26
    44.1400        22
    44.2000        16
    44.2600        20
    44.3200        18
    44.3800        28
    44.4400        22
    44.5000        26
    44.5600        18
    44.6200        20
    44.6800        28
    44.7400        24
    44.8000        20
    44.8600        12
    44.9200        22
    44.9800        24
    45.0400        16
    45.1000        22
    45.1600        26
    45.2200        24
    45.2800        38
    45.3400        60
    45.4000        38
    45.4600        48
    45.5200        32
    45.5800        22
    45.6400        14
    45.7000        20
    45.7600        26
    45.8200         8
    45.8800        22
    45.9400        16
    46.0000        24
    46.0600        22
    46.1200        22
    46.1800        10
    46.2400        18
    46.3000        12
    46.3600        26
    46.4200        22
    46.4800        24
    46.5400        44
    46.6000        62
    46.6600        52
    46.7200       100
    46.7800       120
    46.8400        92
    46.9000        68
    46.9600        46
    47.0200        14
    47.0800        26
    47.1400        28
    47.2000        22
    47.2600        20
    47.3200        18
    47.3800        32
    47.4400        12
    47.5000        14
    47.5600        22
    47.6200         6
    47.6800        24
    47.7400        18
    47.8000        20
    47.8600        26
    47.9200        28
    47.9800        34
    48.0400        30
    48.1000        28
    48.1600        68
    48.2200        52
    48.2800        46
    48.3400        28
    48.4000        32
    48.4600        26
    48.5200        16
    48.5800        28
    48.6400        26
    48.7000        36
    48.7600        50
    48.8200        70
    48.8800        50
    48.9400        50
    49.0000        50
    49.0600        26
    49.1200        24
    49.1800        22
    49.2400        32
    49.3000        42
    49.3600        46
    49.4200       152
    49.4800       180
    49.5400       248
    49.6000       144
    49.6600       136
    49.7200        74
    49.7800        32
    49.8400        26
    49.9000        20
    49.9600        24
    50.0200        20
    50.0800        18
    50.1400        22
    50.2000        28
    50.2600        24
    50.3200        30
    50.3800        26
    50.4400        30
    50.5000        44
    50.5600        96
    50.6200        94
    50.6800        94
    50.7400        58
    50.8000        44
    50.8600        36
    50.9200        20
    50.9800        22
    51.0400        28
    51.1000        36
    51.1600        18
    51.2200        38
    51.2800        26
    51.3400        46
    51.4000       112
    51.4600       146
    51.5200        60
    51.5800        80
    51.6400        44
    51.7000        34
    51.7600        16
    51.8200        32
    51.8800        24
    51.9400        22
    52.0000        28
    52.0600        28
    52.1200        48
    52.1800       124
    52.2400        68
    52.3000        72
    52.3600        56
    52.4200        36
    52.4800        26
    52.5400        16
    52.6000        16
    52.6600        18
    52.7200        20
    52.7800        20
    52.8400        22
    52.9000        16
    52.9600        28
    53.0200        22
    53.0800        38
    53.1400       112
    53.2000        98
    53.2600        60
    53.3200        76
    53.3800        52
    53.4400        36
    53.5000        44
    53.5600        24
    53.6200        24
    53.6800        16
    53.7400        20
    53.8000        30
    53.8600        22
    53.9200        12
    53.9800        14
    54.0400        18
    54.1000        12
    54.1600        24
    54.2200        14
    54.2800        20
    54.3400        22
    54.4000        16
    54.4600        22
    54.5200        20
    54.5800        18
    54.6400        22
    54.7000         8
    54.7600        20
    54.8200        24
    54.8800        14
    54.9400        22
    55.0000        18
    55.0600        14
    55.1200        20
    55.1800        14
    55.2400        16
    55.3000        26
    55.3600        24
    55.4200        20
    55.4800        16
    55.5400        18
    55.6000        12
    55.6600        16
    55.7200        24
    55.7800        32
    55.8400        26
    55.9000        34
    55.9600       108
    56.0200        64
    56.0800        48
    56.1400        60
    56.2000        24
    56.2600        18
    56.3200        22
    56.3800        18
    56.4400        20
    56.5000        24
    56.5600        14
    56.6200        18
    56.6800        26
    56.7400        14
    56.8000        22
    56.8600        28
    56.9200        18
    56.9800         8
    57.0400        18
    57.1000        24
    57.1600        34
    57.2200        24
    57.2800        20
    57.3400        28
    57.4000        26
    57.4600        24
    57.5200        18
    57.5800        24
    57.6400        26
    57.7000        24
    57.7600        12
    57.8200        22
    57.8800        16
    57.9400        14
    58.0000        20
    58.0600        30
    58.1200        22
    58.1800        22
    58.2400        58
    58.3000       100
    58.3600        46
    58.4200        54
    58.4800        48
    58.5400        32
    58.6000        18
    58.6600        18
    58.7200        14
    58.7800        20
    58.8400        20
    58.9000        30
    58.9600        26
    59.0200        20
    59.0800        18
    59.1400        16
    59.2000        24
    59.2600        14
    59.3200        14
    59.3800        16
    59.4400        18
    59.5000        24
    59.5600        16
    59.6200        26
    59.6800        18
    59.7400        22
    59.8000        16
    59.8600        24
    59.9200        20
    59.9800        20
    60.0400        82
    60.1000       120
    60.1600        50
    60.2200        90
    60.2800        60
    60.3400        30
    60.4000        22
    60.4600        32
    60.5200        28
    60.5800        42
    60.6400        36
    60.7000        34
    60.7600        32
    60.8200        24
    60.8800        18
    60.9400        22
    61.0000        26
    61.0600        16
    61.1200        24
    61.1800        14
    61.2400        18
    61.3000        16
    61.3600        16
    61.4200        20
    61.4800        30
    61.5400        24
    61.6000        24
    61.6600        42
    61.7200        52
    61.7800        94
    61.8400        70
    61.9000        60
    61.9600        62
    62.0200        28
    62.0800        30
    62.1400        18
    62.2000        12
    62.2600        12
    62.3200        18
    62.3800        18
    62.4400        22
    62.5000        12
    62.5600        14
    62.6200        20
    62.6800        26
    62.7400        18
    62.8000        16
    62.8600        24
    62.9200        20
    62.9800        30
    63.0400        30
    63.1000        54
    63.1600        92
    63.2200        66
    63.2800        40
    63.3400        56
    63.4000        38
    63.4600        20
    63.5200        28
    63.5800        24
    63.6400        20
    63.7000        26
    63.7600        20
    63.8200        28
    63.8800        26
    63.9400        42
    64.0000       126
    64.0600        38
    64.1200        44
    64.1800        82
    64.2400        44
    64.3000        48
    64.3600        42
    64.4200        30
    64.4800        42
    64.5400        30
    64.6000        26
    64.6600        30
    64.7200        24
    64.7800        24
    64.8400        14
    64.9000        14
    64.9600        30
    65.0000        16