File: sl1/usgs/library06/DESCRIPT/new_xrd_results_to_be_added/Rhonda_Driscoll_xrd_runs/WS425-Apatite-hydroxyl.txt
/////////////////////////////////////////////////////////////////////////////////
/// Profile Data Ascii Dump (XRD)                                             ///
/////////////////////////////////////////////////////////////////////////////////

  Group     : Swayze
  Data      : WS425
  File Name : WS425.RAW

# Profile Datafile
          comment             = Apatite-hydroxyl
          date & time         = 08-04-08 10:00:56

# Measurement Condition
    X-ray tube
          target              = Cu
          voltage             = 40.0 (kV)
          current             = 30.0 (mA)
    Slits
          divergence slit     = 2.00000 (deg)
          scatter slit        = 2.00000 (deg)
          receiving slit      = 0.15000 (mm)
    Scanning
          drive axis          = Theta-2Theta
          scan range          =    4.000 -   65.000
          scan mode           = Continuous Scan
          scan speed          =   2.0000 (deg/min)
          sampling pitch      =   0.0200 (deg)
          preset time         =   0.60 (sec)

# Data      [ Total No. = 3051 ]
  <2Theta>   <   I   >
     4.0000       170
     4.0600       176
     4.1200       168
     4.1800       208
     4.2400       172
     4.3000       160
     4.3600       164
     4.4200       166
     4.4800       168
     4.5400       178
     4.6000       158
     4.6600       156
     4.7200       166
     4.7800       132
     4.8400       138
     4.9000       138
     4.9600       140
     5.0200       130
     5.0800       168
     5.1400       140
     5.2000       154
     5.2600       140
     5.3200       132
     5.3800       150
     5.4400       158
     5.5000       172
     5.5600       146
     5.6200       134
     5.6800       152
     5.7400       144
     5.8000       134
     5.8600       150
     5.9200       158
     5.9800       146
     6.0400       142
     6.1000       146
     6.1600       144
     6.2200       158
     6.2800       126
     6.3400       160
     6.4000       140
     6.4600       122
     6.5200       118
     6.5800       134
     6.6400       126
     6.7000       136
     6.7600       122
     6.8200       100
     6.8800       132
     6.9400       134
     7.0000       116
     7.0600       120
     7.1200       124
     7.1800       112
     7.2400       112
     7.3000       104
     7.3600       114
     7.4200       102
     7.4800       112
     7.5400        94
     7.6000        84
     7.6600       106
     7.7200        82
     7.7800       124
     7.8400       122
     7.9000       100
     7.9600       106
     8.0200       114
     8.0800       124
     8.1400       122
     8.2000       102
     8.2600       110
     8.3200       112
     8.3800       100
     8.4400       122
     8.5000       110
     8.5600       114
     8.6200        96
     8.6800       108
     8.7400       120
     8.8000       106
     8.8600        94
     8.9200       128
     8.9800        98
     9.0400        96
     9.1000       114
     9.1600        98
     9.2200        94
     9.2800       100
     9.3400        92
     9.4000       106
     9.4600       110
     9.5200       130
     9.5800        90
     9.6400       112
     9.7000       110
     9.7600        80
     9.8200       100
     9.8800        90
     9.9400        92
    10.0000        86
    10.0600       100
    10.1200       116
    10.1800        94
    10.2400        88
    10.3000        92
    10.3600        92
    10.4200       102
    10.4800        76
    10.5400       104
    10.6000        96
    10.6600       108
    10.7200       100
    10.7800       116
    10.8400       104
    10.9000        80
    10.9600        84
    11.0200        82
    11.0800        92
    11.1400        92
    11.2000        70
    11.2600        74
    11.3200        78
    11.3800        76
    11.4400        94
    11.5000        82
    11.5600        78
    11.6200        76
    11.6800        46
    11.7400        80
    11.8000        84
    11.8600        74
    11.9200        74
    11.9800        70
    12.0400        68
    12.1000        70
    12.1600        66
    12.2200        80
    12.2800        72
    12.3400        68
    12.4000        70
    12.4600        80
    12.5200        74
    12.5800        64
    12.6400        62
    12.7000        46
    12.7600        64
    12.8200        62
    12.8800        64
    12.9400        72
    13.0000        68
    13.0600        48
    13.1200        50
    13.1800        56
    13.2400        50
    13.3000        66
    13.3600        72
    13.4200        62
    13.4800        58
    13.5400        62
    13.6000        46
    13.6600        54
    13.7200        58
    13.7800        60
    13.8400        80
    13.9000        60
    13.9600        68
    14.0200        66
    14.0800        66
    14.1400        60
    14.2000        58
    14.2600        46
    14.3200        50
    14.3800        60
    14.4400        50
    14.5000        60
    14.5600        58
    14.6200        50
    14.6800        56
    14.7400        52
    14.8000        52
    14.8600        60
    14.9200        64
    14.9800        48
    15.0400        52
    15.1000        38
    15.1600        44
    15.2200        54
    15.2800        62
    15.3400        56
    15.4000        60
    15.4600        56
    15.5200        42
    15.5800        50
    15.6400        36
    15.7000        50
    15.7600        68
    15.8200        54
    15.8800        50
    15.9400        60
    16.0000        50
    16.0600        68
    16.1200        42
    16.1800        44
    16.2400        56
    16.3000        66
    16.3600        46
    16.4200        56
    16.4800        46
    16.5400        46
    16.6000        56
    16.6600        60
    16.7200        62
    16.7800        82
    16.8400        68
    16.9000        40
    16.9600        56
    17.0200        48
    17.0800        54
    17.1400        44
    17.2000        56
    17.2600        42
    17.3200        46
    17.3800        58
    17.4400        44
    17.5000        36
    17.5600        46
    17.6200        52
    17.6800        62
    17.7400        48
    17.8000        50
    17.8600        48
    17.9200        36
    17.9800        56
    18.0400        44
    18.1000        34
    18.1600        46
    18.2200        36
    18.2800        40
    18.3400        52
    18.4000        38
    18.4600        48
    18.5200        48
    18.5800        48
    18.6400        46
    18.7000        48
    18.7600        44
    18.8200        52
    18.8800        58
    18.9400        58
    19.0000        44
    19.0600        62
    19.1200        36
    19.1800        38
    19.2400        32
    19.3000        40
    19.3600        34
    19.4200        44
    19.4800        50
    19.5400        46
    19.6000        50
    19.6600        40
    19.7200        42
    19.7800        46
    19.8400        64
    19.9000        44
    19.9600        52
    20.0200        48
    20.0800        38
    20.1400        40
    20.2000        42
    20.2600        36
    20.3200        44
    20.3800        40
    20.4400        46
    20.5000        46
    20.5600        42
    20.6200        50
    20.6800        66
    20.7400        58
    20.8000        54
    20.8600        54
    20.9200        36
    20.9800        36
    21.0400        40
    21.1000        42
    21.1600        50
    21.2200        44
    21.2800        40
    21.3400        46
    21.4000        42
    21.4600        52
    21.5200        46
    21.5800        56
    21.6400        48
    21.7000        58
    21.7600        74
    21.8200        72
    21.8800        54
    21.9400        50
    22.0000        36
    22.0600        42
    22.1200        26
    22.1800        42
    22.2400        30
    22.3000        52
    22.3600        38
    22.4200        44
    22.4800        40
    22.5400        40
    22.6000        40
    22.6600        58
    22.7200        48
    22.7800        74
    22.8400        70
    22.9000        64
    22.9600        60
    23.0200        38
    23.0800        40
    23.1400        42
    23.2000        40
    23.2600        50
    23.3200        38
    23.3800        38
    23.4400        30
    23.5000        44
    23.5600        40
    23.6200        38
    23.6800        40
    23.7400        34
    23.8000        38
    23.8600        48
    23.9200        28
    23.9800        40
    24.0400        44
    24.1000        32
    24.1600        40
    24.2200        30
    24.2800        44
    24.3400        36
    24.4000        28
    24.4600        38
    24.5200        26
    24.5800        40
    24.6400        42
    24.7000        44
    24.7600        46
    24.8200        48
    24.8800        40
    24.9400        38
    25.0000        28
    25.0600        36
    25.1200        40
    25.1800        52
    25.2400        44
    25.3000        62
    25.3600        50
    25.4200        48
    25.4800        84
    25.5400       124
    25.6000       196
    25.6600       264
    25.7200       314
    25.7800       244
    25.8400       162
    25.9000       100
    25.9600        52
    26.0200        44
    26.0800        28
    26.1400        30
    26.2000        42
    26.2600        40
    26.3200        54
    26.3800        70
    26.4400       102
    26.5000       146
    26.5600       122
    26.6200        90
    26.6800        52
    26.7400        44
    26.8000        40
    26.8600        34
    26.9200        28
    26.9800        36
    27.0400        32
    27.1000        32
    27.1600        26
    27.2200        32
    27.2800        30
    27.3400        32
    27.4000        34
    27.4600        42
    27.5200        24
    27.5800        34
    27.6400        32
    27.7000        36
    27.7600        52
    27.8200        62
    27.8800        68
    27.9400        94
    28.0000       114
    28.0600       110
    28.1200        64
    28.1800        56
    28.2400        44
    28.3000        34
    28.3600        48
    28.4200        40
    28.4800        46
    28.5400        42
    28.6000        36
    28.6600        46
    28.7200        48
    28.7800        52
    28.8400        74
    28.9000        90
    28.9600       102
    29.0200       136
    29.0800       122
    29.1400        68
    29.2000        70
    29.2600        48
    29.3200        44
    29.3800        38
    29.4400        40
    29.5000        44
    29.5600        40
    29.6200        34
    29.6800        32
    29.7400        36
    29.8000        26
    29.8600        28
    29.9200        38
    29.9800        36
    30.0400        34
    30.1000        26
    30.1600        26
    30.2200        38
    30.2800        26
    30.3400        32
    30.4000        32
    30.4600        38
    30.5200        36
    30.5800        30
    30.6400        40
    30.7000        34
    30.7600        42
    30.8200        38
    30.8800        46
    30.9400        38
    31.0000        40
    31.0600        42
    31.1200        36
    31.1800        36
    31.2400        42
    31.3000        58
    31.3600        62
    31.4200        76
    31.4800       104
    31.5400       138
    31.6000       210
    31.6600       330
    31.7200       476
    31.7800       652
    31.8400       752
    31.9000       710
    31.9600       574
    32.0200       444
    32.0800       436
    32.1400       422
    32.2000       308
    32.2600       186
    32.3200       138
    32.3800        88
    32.4400        62
    32.5000        72
    32.5600        68
    32.6200        56
    32.6800        74
    32.7400       118
    32.8000       138
    32.8600       212
    32.9200       284
    32.9800       428
    33.0400       416
    33.1000       340
    33.1600       224
    33.2200       134
    33.2800        90
    33.3400        78
    33.4000        50
    33.4600        52
    33.5200        26
    33.5800        44
    33.6400        44
    33.7000        48
    33.7600        60
    33.8200        76
    33.8800       128
    33.9400       186
    34.0000       232
    34.0600       202
    34.1200       160
    34.1800       104
    34.2400        74
    34.3000        54
    34.3600        46
    34.4200        38
    34.4800        44
    34.5400        48
    34.6000        40
    34.6600        38
    34.7200        44
    34.7800        36
    34.8400        28
    34.9000        36
    34.9600        32
    35.0200        36
    35.0800        42
    35.1400        28
    35.2000        38
    35.2600        32
    35.3200        34
    35.3800        52
    35.4400        32
    35.5000        58
    35.5600        60
    35.6200        50
    35.6800        52
    35.7400        40
    35.8000        42
    35.8600        32
    35.9200        30
    35.9800        18
    36.0400        30
    36.1000        30
    36.1600        26
    36.2200        30
    36.2800        26
    36.3400        22
    36.4000        40
    36.4600        30
    36.5200        32
    36.5800        14
    36.6400        22
    36.7000        32
    36.7600        26
    36.8200        26
    36.8800        26
    36.9400        24
    37.0000        22
    37.0600        26
    37.1200        18
    37.1800        28
    37.2400        20
    37.3000        20
    37.3600        42
    37.4200        42
    37.4800        22
    37.5400        24
    37.6000        20
    37.6600        22
    37.7200        22
    37.7800        26
    37.8400        30
    37.9000        48
    37.9600        26
    38.0200        24
    38.0800        22
    38.1400        18
    38.2000        18
    38.2600        28
    38.3200        34
    38.3800        20
    38.4400        22
    38.5000        28
    38.5600        28
    38.6200        22
    38.6800        30
    38.7400        16
    38.8000        30
    38.8600        42
    38.9200        34
    38.9800        34
    39.0400        38
    39.1000        54
    39.1600        54
    39.2200        78
    39.2800        64
    39.3400        60
    39.4000        42
    39.4600        42
    39.5200        44
    39.5800        46
    39.6400        52
    39.7000        58
    39.7600        68
    39.8200       100
    39.8800       132
    39.9400       176
    40.0000       194
    40.0600       156
    40.1200       106
    40.1800       102
    40.2400        70
    40.3000        64
    40.3600        44
    40.4200        44
    40.4800        34
    40.5400        32
    40.6000        50
    40.6600        36
    40.7200        32
    40.7800        34
    40.8400        32
    40.9000        18
    40.9600        36
    41.0200        38
    41.0800        36
    41.1400        24
    41.2000        22
    41.2600        22
    41.3200        22
    41.3800        30
    41.4400        16
    41.5000        24
    41.5600        22
    41.6200        44
    41.6800        26
    41.7400        38
    41.8000        32
    41.8600        34
    41.9200        28
    41.9800        32
    42.0400        52
    42.1000        64
    42.1600        72
    42.2200        68
    42.2800        50
    42.3400        42
    42.4000        46
    42.4600        54
    42.5200        34
    42.5800        36
    42.6400        36
    42.7000        26
    42.7600        28
    42.8200        18
    42.8800        18
    42.9400        26
    43.0000        18
    43.0600        16
    43.1200        24
    43.1800        28
    43.2400        26
    43.3000        10
    43.3600        28
    43.4200        28
    43.4800        28
    43.5400        32
    43.6000        34
    43.6600        48
    43.7200        50
    43.7800        64
    43.8400        52
    43.9000        40
    43.9600        30
    44.0200        32
    44.0800        24
    44.1400        24
    44.2000        22
    44.2600        30
    44.3200        26
    44.3800        22
    44.4400        34
    44.5000        38
    44.5600        26
    44.6200        42
    44.6800        26
    44.7400        26
    44.8000        30
    44.8600        32
    44.9200        26
    44.9800        24
    45.0400        32
    45.1000        40
    45.1600        46
    45.2200        52
    45.2800        58
    45.3400        52
    45.4000        42
    45.4600        40
    45.5200        36
    45.5800        32
    45.6400        30
    45.7000        26
    45.7600        30
    45.8200        26
    45.8800        22
    45.9400        24
    46.0000        32
    46.0600        26
    46.1200        28
    46.1800        16
    46.2400        26
    46.3000        38
    46.3600        30
    46.4200        30
    46.4800        42
    46.5400        66
    46.6000        80
    46.6600       134
    46.7200       166
    46.7800       186
    46.8400       214
    46.9000       180
    46.9600       126
    47.0200        94
    47.0800        56
    47.1400        58
    47.2000        30
    47.2600        28
    47.3200        32
    47.3800        36
    47.4400        28
    47.5000        26
    47.5600        30
    47.6200        28
    47.6800        26
    47.7400        32
    47.8000        30
    47.8600        26
    47.9200        34
    47.9800        52
    48.0400        46
    48.1000        90
    48.1600       110
    48.2200       124
    48.2800       124
    48.3400        82
    48.4000        58
    48.4600        46
    48.5200        52
    48.5800        36
    48.6400        44
    48.7000        44
    48.7600        50
    48.8200        50
    48.8800        58
    48.9400        66
    49.0000        56
    49.0600        40
    49.1200        54
    49.1800        74
    49.2400        66
    49.3000       132
    49.3600       212
    49.4200       236
    49.4800       276
    49.5400       216
    49.6000       186
    49.6600       140
    49.7200        82
    49.7800        62
    49.8400        56
    49.9000        46
    49.9600        48
    50.0200        50
    50.0800        42
    50.1400        40
    50.2000        40
    50.2600        42
    50.3200        46
    50.3800        50
    50.4400        50
    50.5000        56
    50.5600        76
    50.6200        96
    50.6800       132
    50.7400       138
    50.8000       118
    50.8600        86
    50.9200        72
    50.9800        66
    51.0400        60
    51.1000        42
    51.1600        48
    51.2200        32
    51.2800        38
    51.3400        48
    51.4000        62
    51.4600       104
    51.5200       106
    51.5800       110
    51.6400       104
    51.7000        86
    51.7600        56
    51.8200        50
    51.8800        54
    51.9400        44
    52.0000        58
    52.0600        66
    52.1200        82
    52.1800       106
    52.2400       118
    52.3000        96
    52.3600        92
    52.4200        62
    52.4800        60
    52.5400        42
    52.6000        40
    52.6600        46
    52.7200        38
    52.7800        42
    52.8400        62
    52.9000       104
    52.9600       136
    53.0200       142
    53.0800       112
    53.1400       110
    53.2000        72
    53.2600        64
    53.3200        62
    53.3800        30
    53.4400        34
    53.5000        38
    53.5600        24
    53.6200        18
    53.6800        24
    53.7400        24
    53.8000        26
    53.8600        22
    53.9200        28
    53.9800        22
    54.0400        36
    54.1000        28
    54.1600        24
    54.2200        32
    54.2800        28
    54.3400        26
    54.4000        18
    54.4600        30
    54.5200        26
    54.5800        22
    54.6400        22
    54.7000        24
    54.7600        20
    54.8200        30
    54.8800        22
    54.9400        24
    55.0000        16
    55.0600        16
    55.1200        30
    55.1800        28
    55.2400        20
    55.3000        22
    55.3600        20
    55.4200        18
    55.4800        20
    55.5400        34
    55.6000        24
    55.6600        30
    55.7200        26
    55.7800        24
    55.8400        34
    55.9000        54
    55.9600        46
    56.0200        50
    56.0800        60
    56.1400        50
    56.2000        56
    56.2600        54
    56.3200        46
    56.3800        28
    56.4400        20
    56.5000        18
    56.5600        18
    56.6200        12
    56.6800        32
    56.7400        36
    56.8000        22
    56.8600        28
    56.9200        30
    56.9800        28
    57.0400        28
    57.1000        34
    57.1600        46
    57.2200        52
    57.2800        36
    57.3400        28
    57.4000        26
    57.4600        28
    57.5200        34
    57.5800        22
    57.6400        30
    57.7000        12
    57.7600        24
    57.8200        18
    57.8800        24
    57.9400        24
    58.0000        18
    58.0600        28
    58.1200        34
    58.1800        26
    58.2400        22
    58.3000        26
    58.3600        32
    58.4200        34
    58.4800        32
    58.5400        26
    58.6000        28
    58.6600        24
    58.7200        24
    58.7800        32
    58.8400        36
    58.9000        30
    58.9600        24
    59.0200        28
    59.0800        28
    59.1400        24
    59.2000        22
    59.2600        22
    59.3200        22
    59.3800        20
    59.4400        16
    59.5000        26
    59.5600        26
    59.6200        20
    59.6800        26
    59.7400        30
    59.8000        36
    59.8600        24
    59.9200        20
    59.9800        28
    60.0400        34
    60.1000        40
    60.1600        34
    60.2200        42
    60.2800        54
    60.3400        50
    60.4000        40
    60.4600        48
    60.5200        42
    60.5800        48
    60.6400        56
    60.7000        48
    60.7600        42
    60.8200        54
    60.8800        46
    60.9400        34
    61.0000        52
    61.0600        26
    61.1200        24
    61.1800        32
    61.2400        30
    61.3000        18
    61.3600        28
    61.4200        30
    61.4800        44
    61.5400        46
    61.6000        50
    61.6600        42
    61.7200        60
    61.7800        46
    61.8400        44
    61.9000        48
    61.9600        38
    62.0200        30
    62.0800        34
    62.1400        26
    62.2000        24
    62.2600        28
    62.3200        24
    62.3800        16
    62.4400        20
    62.5000        24
    62.5600        22
    62.6200        20
    62.6800        18
    62.7400        22
    62.8000        16
    62.8600        28
    62.9200        46
    62.9800        40
    63.0400        38
    63.1000        54
    63.1600        58
    63.2200        80
    63.2800        96
    63.3400        70
    63.4000        72
    63.4600        78
    63.5200        72
    63.5800        42
    63.6400        56
    63.7000        52
    63.7600        54
    63.8200        56
    63.8800        74
    63.9400        72
    64.0000        82
    64.0600        74
    64.1200        84
    64.1800        72
    64.2400        72
    64.3000        64
    64.3600        64
    64.4200        46
    64.4800        66
    64.5400        44
    64.6000        30
    64.6600        36
    64.7200        20
    64.7800        26
    64.8400        30
    64.9000        16
    64.9600        22
    65.0000        20