File: sl1/usgs/library06/DESCRIPT/new_xrd_results_to_be_added/Rhonda_Driscoll_xrd_runs/WS423-Chlorapatite.txt
/////////////////////////////////////////////////////////////////////////////////
/// Profile Data Ascii Dump (XRD)                                             ///
/////////////////////////////////////////////////////////////////////////////////

  Group     : Swayze
  Data      : WS423
  File Name : WS423.RAW

# Profile Datafile
          comment             = Chlorapatite
          date & time         = 08-04-08 06:58:39

# Measurement Condition
    X-ray tube
          target              = Cu
          voltage             = 40.0 (kV)
          current             = 30.0 (mA)
    Slits
          divergence slit     = 2.00000 (deg)
          scatter slit        = 2.00000 (deg)
          receiving slit      = 0.15000 (mm)
    Scanning
          drive axis          = Theta-2Theta
          scan range          =    4.000 -   65.000
          scan mode           = Continuous Scan
          scan speed          =   2.0000 (deg/min)
          sampling pitch      =   0.0200 (deg)
          preset time         =   0.60 (sec)

# Data      [ Total No. = 3051 ]
  <2Theta>   <   I   >
     4.0000       186
     4.0600       174
     4.1200       186
     4.1800       182
     4.2400       184
     4.3000       186
     4.3600       172
     4.4200       160
     4.4800       154
     4.5400       168
     4.6000       160
     4.6600       152
     4.7200       160
     4.7800       180
     4.8400       156
     4.9000       152
     4.9600       152
     5.0200       168
     5.0800       142
     5.1400       164
     5.2000       128
     5.2600       146
     5.3200       166
     5.3800       158
     5.4400       164
     5.5000       168
     5.5600       170
     5.6200       156
     5.6800       144
     5.7400       176
     5.8000       146
     5.8600       186
     5.9200       160
     5.9800       150
     6.0400       136
     6.1000       160
     6.1600       170
     6.2200       134
     6.2800       148
     6.3400       140
     6.4000       134
     6.4600       126
     6.5200       144
     6.5800       120
     6.6400       124
     6.7000       120
     6.7600       116
     6.8200       134
     6.8800       132
     6.9400       132
     7.0000       114
     7.0600       122
     7.1200       124
     7.1800       126
     7.2400       108
     7.3000       116
     7.3600        94
     7.4200       120
     7.4800       118
     7.5400       110
     7.6000       104
     7.6600       106
     7.7200       112
     7.7800       116
     7.8400       102
     7.9000       118
     7.9600       118
     8.0200       104
     8.0800       126
     8.1400        94
     8.2000       106
     8.2600        98
     8.3200       110
     8.3800       122
     8.4400       120
     8.5000       116
     8.5600       118
     8.6200       124
     8.6800       118
     8.7400       118
     8.8000       112
     8.8600       116
     8.9200       102
     8.9800        94
     9.0400       102
     9.1000       120
     9.1600       112
     9.2200       104
     9.2800       108
     9.3400       120
     9.4000       102
     9.4600        98
     9.5200       102
     9.5800        92
     9.6400       100
     9.7000       120
     9.7600       118
     9.8200       100
     9.8800        88
     9.9400       108
    10.0000       110
    10.0600        96
    10.1200        84
    10.1800       112
    10.2400       100
    10.3000       104
    10.3600       102
    10.4200       120
    10.4800       106
    10.5400       138
    10.6000       112
    10.6600        96
    10.7200       112
    10.7800        92
    10.8400        92
    10.9000        90
    10.9600        94
    11.0200       106
    11.0800        82
    11.1400        98
    11.2000        82
    11.2600        96
    11.3200        86
    11.3800        94
    11.4400        74
    11.5000        88
    11.5600        74
    11.6200        70
    11.6800        76
    11.7400        68
    11.8000        88
    11.8600        70
    11.9200        96
    11.9800        76
    12.0400        74
    12.1000        80
    12.1600        78
    12.2200        96
    12.2800        94
    12.3400        72
    12.4000        74
    12.4600        68
    12.5200        78
    12.5800        68
    12.6400        66
    12.7000        70
    12.7600        86
    12.8200        56
    12.8800        66
    12.9400        64
    13.0000        66
    13.0600        56
    13.1200        78
    13.1800        60
    13.2400        70
    13.3000        76
    13.3600        76
    13.4200        54
    13.4800        66
    13.5400        64
    13.6000        70
    13.6600        66
    13.7200        60
    13.7800        58
    13.8400        60
    13.9000        64
    13.9600        72
    14.0200        62
    14.0800        58
    14.1400        64
    14.2000        60
    14.2600        58
    14.3200        78
    14.3800        54
    14.4400        56
    14.5000        52
    14.5600        62
    14.6200        58
    14.6800        64
    14.7400        54
    14.8000        50
    14.8600        60
    14.9200        64
    14.9800        72
    15.0400        74
    15.1000        40
    15.1600        60
    15.2200        44
    15.2800        76
    15.3400        52
    15.4000        38
    15.4600        64
    15.5200        68
    15.5800        66
    15.6400        54
    15.7000        62
    15.7600        38
    15.8200        56
    15.8800        54
    15.9400        62
    16.0000        62
    16.0600        62
    16.1200        54
    16.1800        64
    16.2400        44
    16.3000        54
    16.3600        50
    16.4200        60
    16.4800        48
    16.5400        62
    16.6000        68
    16.6600        72
    16.7200       110
    16.7800        82
    16.8400        50
    16.9000        58
    16.9600        52
    17.0200        56
    17.0800        50
    17.1400        48
    17.2000        42
    17.2600        42
    17.3200        30
    17.3800        50
    17.4400        52
    17.5000        52
    17.5600        58
    17.6200        32
    17.6800        68
    17.7400        36
    17.8000        46
    17.8600        42
    17.9200        62
    17.9800        52
    18.0400        48
    18.1000        52
    18.1600        58
    18.2200        38
    18.2800        34
    18.3400        40
    18.4000        42
    18.4600        50
    18.5200        32
    18.5800        66
    18.6400        44
    18.7000        40
    18.7600        42
    18.8200        56
    18.8800        44
    18.9400        48
    19.0000        52
    19.0600        52
    19.1200        46
    19.1800        42
    19.2400        40
    19.3000        42
    19.3600        58
    19.4200        40
    19.4800        38
    19.5400        46
    19.6000        44
    19.6600        38
    19.7200        56
    19.7800        46
    19.8400        40
    19.9000        42
    19.9600        48
    20.0200        50
    20.0800        38
    20.1400        40
    20.2000        38
    20.2600        34
    20.3200        48
    20.3800        48
    20.4400        44
    20.5000        42
    20.5600        40
    20.6200        50
    20.6800        34
    20.7400        54
    20.8000        50
    20.8600        44
    20.9200        38
    20.9800        28
    21.0400        40
    21.1000        38
    21.1600        44
    21.2200        56
    21.2800        52
    21.3400        46
    21.4000        58
    21.4600        30
    21.5200        38
    21.5800        40
    21.6400        42
    21.7000        44
    21.7600        38
    21.8200        40
    21.8800        34
    21.9400        38
    22.0000        36
    22.0600        46
    22.1200        40
    22.1800        50
    22.2400        44
    22.3000        36
    22.3600        44
    22.4200        38
    22.4800        50
    22.5400        64
    22.6000        50
    22.6600        54
    22.7200        44
    22.7800        52
    22.8400        38
    22.9000        30
    22.9600        32
    23.0200        50
    23.0800        40
    23.1400        36
    23.2000        36
    23.2600        34
    23.3200        36
    23.3800        26
    23.4400        34
    23.5000        38
    23.5600        38
    23.6200        30
    23.6800        28
    23.7400        46
    23.8000        24
    23.8600        42
    23.9200        38
    23.9800        34
    24.0400        34
    24.1000        24
    24.1600        30
    24.2200        28
    24.2800        30
    24.3400        30
    24.4000        38
    24.4600        32
    24.5200        34
    24.5800        36
    24.6400        28
    24.7000        32
    24.7600        36
    24.8200        46
    24.8800        60
    24.9400        54
    25.0000        80
    25.0600        60
    25.1200        44
    25.1800        42
    25.2400        42
    25.3000        30
    25.3600        34
    25.4200        34
    25.4800        32
    25.5400        34
    25.6000        48
    25.6600        36
    25.7200        40
    25.7800        52
    25.8400        56
    25.9000        82
    25.9600        98
    26.0200        92
    26.0800       126
    26.1400       252
    26.2000       182
    26.2600       130
    26.3200        74
    26.3800        38
    26.4400        60
    26.5000        88
    26.5600       100
    26.6200        82
    26.6800        38
    26.7400        34
    26.8000        24
    26.8600        32
    26.9200        42
    26.9800        28
    27.0400        38
    27.1000        36
    27.1600        40
    27.2200        32
    27.2800        30
    27.3400        36
    27.4000        44
    27.4600        32
    27.5200        34
    27.5800        40
    27.6400        36
    27.7000        36
    27.7600        40
    27.8200        36
    27.8800        34
    27.9400        36
    28.0000        46
    28.0600        48
    28.1200        80
    28.1800       102
    28.2400       116
    28.3000        98
    28.3600        84
    28.4200        58
    28.4800        44
    28.5400        44
    28.6000        34
    28.6600        34
    28.7200        32
    28.7800        34
    28.8400        42
    28.9000        36
    28.9600        42
    29.0200        38
    29.0800        36
    29.1400        40
    29.2000        34
    29.2600        40
    29.3200        38
    29.3800        42
    29.4400        26
    29.5000        30
    29.5600        24
    29.6200        38
    29.6800        24
    29.7400        44
    29.8000        34
    29.8600        34
    29.9200        40
    29.9800        34
    30.0400        32
    30.1000        28
    30.1600        40
    30.2200        30
    30.2800        34
    30.3400        40
    30.4000        28
    30.4600        40
    30.5200        38
    30.5800        42
    30.6400        40
    30.7000        52
    30.7600        46
    30.8200        60
    30.8800        58
    30.9400        92
    31.0000       134
    31.0600       184
    31.1200       388
    31.1800       842
    31.2400      1144
    31.3000       664
    31.3600       310
    31.4200       104
    31.4800        90
    31.5400        84
    31.6000        96
    31.6600        74
    31.7200        64
    31.7800        70
    31.8400        84
    31.9000       138
    31.9600       188
    32.0200       394
    32.0800       924
    32.1400      1628
    32.2000      1946
    32.2600      1170
    32.3200       354
    32.3800       138
    32.4400        84
    32.5000        64
    32.5600        64
    32.6200        54
    32.6800        46
    32.7400        72
    32.8000        48
    32.8600        36
    32.9200        36
    32.9800        36
    33.0400        30
    33.1000        34
    33.1600        24
    33.2200        32
    33.2800        22
    33.3400        24
    33.4000        26
    33.4600        24
    33.5200        42
    33.5800        30
    33.6400        32
    33.7000        48
    33.7600        48
    33.8200        68
    33.8800       140
    33.9400       174
    34.0000       178
    34.0600       110
    34.1200        46
    34.1800        32
    34.2400        30
    34.3000        32
    34.3600        30
    34.4200        36
    34.4800        32
    34.5400        28
    34.6000        26
    34.6600        38
    34.7200        44
    34.7800        76
    34.8400        86
    34.9000        78
    34.9600        42
    35.0200        32
    35.0800        28
    35.1400        32
    35.2000        20
    35.2600        32
    35.3200        22
    35.3800        32
    35.4400        22
    35.5000        38
    35.5600        24
    35.6200        32
    35.6800        34
    35.7400        30
    35.8000        18
    35.8600        28
    35.9200        30
    35.9800        28
    36.0400        24
    36.1000        38
    36.1600        30
    36.2200        18
    36.2800        28
    36.3400        30
    36.4000        32
    36.4600        20
    36.5200        40
    36.5800        28
    36.6400        28
    36.7000        30
    36.7600        26
    36.8200        28
    36.8800        40
    36.9400        24
    37.0000        30
    37.0600        24
    37.1200        22
    37.1800        32
    37.2400        38
    37.3000        30
    37.3600        22
    37.4200        32
    37.4800        30
    37.5400        36
    37.6000        22
    37.6600        26
    37.7200        34
    37.7800        28
    37.8400        24
    37.9000        26
    37.9600        32
    38.0200        46
    38.0800        18
    38.1400        24
    38.2000        26
    38.2600        30
    38.3200        26
    38.3800        22
    38.4400        22
    38.5000        38
    38.5600        28
    38.6200        36
    38.6800        48
    38.7400        76
    38.8000        88
    38.8600       234
    38.9200       304
    38.9800       222
    39.0400       152
    39.1000        56
    39.1600        38
    39.2200        50
    39.2800        24
    39.3400        40
    39.4000        36
    39.4600        36
    39.5200        34
    39.5800        40
    39.6400        40
    39.7000        38
    39.7600        48
    39.8200        24
    39.8800        26
    39.9400        30
    40.0000        22
    40.0600        28
    40.1200        26
    40.1800        44
    40.2400        28
    40.3000        34
    40.3600        30
    40.4200        24
    40.4800        14
    40.5400        20
    40.6000        20
    40.6600        28
    40.7200        26
    40.7800        26
    40.8400        22
    40.9000        36
    40.9600        26
    41.0200        30
    41.0800        70
    41.1400       104
    41.2000       172
    41.2600       156
    41.3200        96
    41.3800        54
    41.4400        32
    41.5000        26
    41.5600        36
    41.6200        26
    41.6800        22
    41.7400        16
    41.8000        36
    41.8600        46
    41.9200        56
    41.9800        90
    42.0400        54
    42.1000        40
    42.1600        30
    42.2200        28
    42.2800        28
    42.3400        28
    42.4000        30
    42.4600        28
    42.5200        30
    42.5800        22
    42.6400        24
    42.7000        22
    42.7600        20
    42.8200        20
    42.8800        34
    42.9400        22
    43.0000        30
    43.0600        22
    43.1200        28
    43.1800        20
    43.2400        36
    43.3000        26
    43.3600        42
    43.4200        44
    43.4800        32
    43.5400        36
    43.6000        24
    43.6600        24
    43.7200        28
    43.7800        34
    43.8400        30
    43.9000        34
    43.9600        42
    44.0200        46
    44.0800       122
    44.1400       110
    44.2000        90
    44.2600        50
    44.3200        32
    44.3800        20
    44.4400        28
    44.5000        12
    44.5600        28
    44.6200        26
    44.6800        32
    44.7400        26
    44.8000        28
    44.8600        30
    44.9200        20
    44.9800        26
    45.0400        20
    45.1000        18
    45.1600        36
    45.2200        30
    45.2800        28
    45.3400        20
    45.4000        46
    45.4600        76
    45.5200        80
    45.5800        48
    45.6400        42
    45.7000        36
    45.7600        20
    45.8200        34
    45.8800        32
    45.9400        52
    46.0000        78
    46.0600       160
    46.1200       380
    46.1800       566
    46.2400       348
    46.3000       290
    46.3600       120
    46.4200        38
    46.4800        38
    46.5400        42
    46.6000        48
    46.6600        32
    46.7200        30
    46.7800        32
    46.8400        26
    46.9000        30
    46.9600        38
    47.0200        32
    47.0800        22
    47.1400        18
    47.2000        38
    47.2600        40
    47.3200        42
    47.3800        56
    47.4400        80
    47.5000       150
    47.5600        88
    47.6200        82
    47.6800        56
    47.7400        36
    47.8000        34
    47.8600        34
    47.9200        34
    47.9800        36
    48.0400        40
    48.1000        26
    48.1600        16
    48.2200        18
    48.2800        26
    48.3400        28
    48.4000        22
    48.4600        18
    48.5200        30
    48.5800        32
    48.6400        24
    48.7000        28
    48.7600        16
    48.8200        30
    48.8800        26
    48.9400        28
    49.0000        40
    49.0600        18
    49.1200        30
    49.1800        46
    49.2400        46
    49.3000        98
    49.3600       148
    49.4200       394
    49.4800       604
    49.5400       416
    49.6000       368
    49.6600       226
    49.7200        84
    49.7800        50
    49.8400        36
    49.9000        46
    49.9600        62
    50.0200        94
    50.0800       132
    50.1400       150
    50.2000       128
    50.2600       108
    50.3200        62
    50.3800        40
    50.4400        36
    50.5000        26
    50.5600        34
    50.6200        20
    50.6800        26
    50.7400        20
    50.8000        22
    50.8600        26
    50.9200        30
    50.9800        26
    51.0400        30
    51.1000        28
    51.1600        34
    51.2200        28
    51.2800        60
    51.3400       100
    51.4000       116
    51.4600        94
    51.5200        56
    51.5800        54
    51.6400        30
    51.7000        30
    51.7600        30
    51.8200        24
    51.8800        32
    51.9400        42
    52.0000        50
    52.0600        40
    52.1200        40
    52.1800        32
    52.2400        38
    52.3000        22
    52.3600        24
    52.4200        20
    52.4800        16
    52.5400        18
    52.6000        18
    52.6600        12
    52.7200        10
    52.7800        16
    52.8400        18
    52.9000        28
    52.9600        28
    53.0200        24
    53.0800        22
    53.1400        38
    53.2000        26
    53.2600        28
    53.3200        28
    53.3800        22
    53.4400        18
    53.5000        28
    53.5600        36
    53.6200        30
    53.6800        34
    53.7400        48
    53.8000        90
    53.8600       140
    53.9200       104
    53.9800       108
    54.0400        80
    54.1000        56
    54.1600        40
    54.2200        28
    54.2800        26
    54.3400        26
    54.4000        26
    54.4600        24
    54.5200        24
    54.5800        28
    54.6400        26
    54.7000        26
    54.7600        22
    54.8200        22
    54.8800        30
    54.9400        44
    55.0000        48
    55.0600        86
    55.1200        84
    55.1800        50
    55.2400        48
    55.3000        26
    55.3600        24
    55.4200        18
    55.4800        32
    55.5400        20
    55.6000        32
    55.6600        20
    55.7200        20
    55.7800        22
    55.8400        30
    55.9000        16
    55.9600        18
    56.0200        24
    56.0800        24
    56.1400        18
    56.2000        18
    56.2600        24
    56.3200        22
    56.3800        28
    56.4400        22
    56.5000        22
    56.5600        22
    56.6200        26
    56.6800        36
    56.7400        38
    56.8000       110
    56.8600       114
    56.9200        74
    56.9800        86
    57.0400        52
    57.1000        20
    57.1600        28
    57.2200        34
    57.2800        26
    57.3400        42
    57.4000        82
    57.4600        66
    57.5200        56
    57.5800        60
    57.6400        34
    57.7000        28
    57.7600        20
    57.8200        28
    57.8800        26
    57.9400        20
    58.0000        20
    58.0600        22
    58.1200        24
    58.1800        20
    58.2400        28
    58.3000        22
    58.3600        26
    58.4200        30
    58.4800        32
    58.5400        56
    58.6000        62
    58.6600        34
    58.7200        52
    58.7800        40
    58.8400        28
    58.9000        18
    58.9600        38
    59.0200        24
    59.0800        42
    59.1400        46
    59.2000        46
    59.2600        28
    59.3200        34
    59.3800        32
    59.4400        30
    59.5000        24
    59.5600        14
    59.6200        26
    59.6800        20
    59.7400        22
    59.8000        28
    59.8600        22
    59.9200        20
    59.9800        36
    60.0400        22
    60.1000        28
    60.1600        36
    60.2200        70
    60.2800        66
    60.3400        58
    60.4000        50
    60.4600        52
    60.5200        28
    60.5800        28
    60.6400        32
    60.7000        24
    60.7600        28
    60.8200        32
    60.8800        18
    60.9400        28
    61.0000        22
    61.0600        20
    61.1200        18
    61.1800        18
    61.2400        14
    61.3000        30
    61.3600        20
    61.4200        20
    61.4800        26
    61.5400        18
    61.6000        24
    61.6600        32
    61.7200        22
    61.7800        20
    61.8400        38
    61.9000        64
    61.9600       124
    62.0200       106
    62.0800        78
    62.1400        70
    62.2000        70
    62.2600        30
    62.3200        26
    62.3800        22
    62.4400        28
    62.5000        20
    62.5600        30
    62.6200        16
    62.6800        24
    62.7400        16
    62.8000        22
    62.8600        30
    62.9200        24
    62.9800        20
    63.0400        26
    63.1000        28
    63.1600        30
    63.2200        32
    63.2800        38
    63.3400        32
    63.4000        32
    63.4600        40
    63.5200        76
    63.5800       148
    63.6400       144
    63.7000        78
    63.7600        90
    63.8200        98
    63.8800        54
    63.9400        40
    64.0000        54
    64.0600        42
    64.1200        74
    64.1800       124
    64.2400        76
    64.3000        52
    64.3600        88
    64.4200        40
    64.4800        26
    64.5400        30
    64.6000        32
    64.6600        18
    64.7200        30
    64.7800        26
    64.8400        24
    64.9000        32
    64.9600        28
    65.0000        28