File: sl1/usgs/library06/DESCRIPT/new_xrd_results_to_be_added/Rhonda_Driscoll_xrd_runs/WS479---Almandine.txt
/////////////////////////////////////////////////////////////////////////////////
/// Profile Data Ascii Dump (XRD)                                             ///
/////////////////////////////////////////////////////////////////////////////////

  Group     : Swayze
  Data      : WS479
  File Name : WS479.RAW

# Profile Datafile
          comment             = Almandine
          date & time         = 08-03-14 06:55:54

# Measurement Condition
    X-ray tube
          target              = Cu
          voltage             = 40.0 (kV)
          current             = 30.0 (mA)
    Slits
          divergence slit     = 2.00000 (deg)
          scatter slit        = 2.00000 (deg)
          receiving slit      = 0.15000 (mm)
    Scanning
          drive axis          = Theta-2Theta
          scan range          =    4.000 -   65.000
          scan mode           = Continuous Scan
          scan speed          =   2.0000 (deg/min)
          sampling pitch      =   0.0200 (deg)
          preset time         =   0.60 (sec)

# Data      [ Total No. = 3051 ]
  <2Theta>   <   I   >
     4.0000       210
     4.0600       156
     4.1200       186
     4.1800       198
     4.2400       150
     4.3000       160
     4.3600       178
     4.4200       184
     4.4800       162
     4.5400       172
     4.6000       192
     4.6600       166
     4.7200       178
     4.7800       172
     4.8400       158
     4.9000       146
     4.9600       158
     5.0200       158
     5.0800       140
     5.1400       124
     5.2000       144
     5.2600       164
     5.3200       162
     5.3800       166
     5.4400       148
     5.5000       176
     5.5600       170
     5.6200       172
     5.6800       186
     5.7400       186
     5.8000       170
     5.8600       164
     5.9200       154
     5.9800       134
     6.0400       160
     6.1000       160
     6.1600       180
     6.2200       160
     6.2800       162
     6.3400       144
     6.4000       156
     6.4600       138
     6.5200       120
     6.5800       148
     6.6400       134
     6.7000       144
     6.7600       120
     6.8200       154
     6.8800       138
     6.9400       110
     7.0000       122
     7.0600       134
     7.1200       132
     7.1800       118
     7.2400       118
     7.3000       106
     7.3600       128
     7.4200       130
     7.4800       114
     7.5400       126
     7.6000        94
     7.6600       114
     7.7200       116
     7.7800       118
     7.8400       116
     7.9000       132
     7.9600       118
     8.0200       106
     8.0800       106
     8.1400       118
     8.2000       106
     8.2600       110
     8.3200       136
     8.3800       112
     8.4400       110
     8.5000       160
     8.5600       120
     8.6200       150
     8.6800       118
     8.7400       114
     8.8000       114
     8.8600       124
     8.9200       122
     8.9800       116
     9.0400       136
     9.1000       122
     9.1600       142
     9.2200       106
     9.2800       102
     9.3400       118
     9.4000       124
     9.4600       110
     9.5200       114
     9.5800       126
     9.6400       116
     9.7000       126
     9.7600       110
     9.8200       104
     9.8800       114
     9.9400       118
    10.0000       108
    10.0600       124
    10.1200       100
    10.1800       106
    10.2400        98
    10.3000       128
    10.3600        94
    10.4200        96
    10.4800       102
    10.5400       112
    10.6000       120
    10.6600        90
    10.7200        96
    10.7800       106
    10.8400        86
    10.9000        92
    10.9600       118
    11.0200        88
    11.0800        96
    11.1400        98
    11.2000        84
    11.2600       108
    11.3200        92
    11.3800        84
    11.4400       102
    11.5000       100
    11.5600        84
    11.6200        94
    11.6800        78
    11.7400       100
    11.8000       102
    11.8600        74
    11.9200        98
    11.9800        88
    12.0400        86
    12.1000        96
    12.1600        84
    12.2200       104
    12.2800        60
    12.3400        76
    12.4000        86
    12.4600        72
    12.5200        90
    12.5800        76
    12.6400        76
    12.7000        90
    12.7600        82
    12.8200        82
    12.8800        62
    12.9400        84
    13.0000        72
    13.0600        72
    13.1200        74
    13.1800        78
    13.2400        72
    13.3000        86
    13.3600        68
    13.4200        70
    13.4800        90
    13.5400        76
    13.6000        84
    13.6600        76
    13.7200        66
    13.7800        68
    13.8400        62
    13.9000        70
    13.9600        58
    14.0200        76
    14.0800        60
    14.1400        72
    14.2000        86
    14.2600        62
    14.3200        80
    14.3800        72
    14.4400        70
    14.5000        64
    14.5600        66
    14.6200        66
    14.6800        78
    14.7400        62
    14.8000        74
    14.8600        50
    14.9200        68
    14.9800        70
    15.0400        56
    15.1000        76
    15.1600        60
    15.2200        64
    15.2800        76
    15.3400        74
    15.4000        72
    15.4600        68
    15.5200        62
    15.5800        42
    15.6400        70
    15.7000        82
    15.7600        66
    15.8200        52
    15.8800        52
    15.9400        56
    16.0000        58
    16.0600        60
    16.1200        72
    16.1800        58
    16.2400        64
    16.3000        80
    16.3600        58
    16.4200        50
    16.4800        62
    16.5400        76
    16.6000        60
    16.6600        72
    16.7200        68
    16.7800        58
    16.8400        64
    16.9000        62
    16.9600        62
    17.0200        58
    17.0800        62
    17.1400        54
    17.2000        52
    17.2600        50
    17.3200        64
    17.3800        48
    17.4400        56
    17.5000        62
    17.5600        60
    17.6200        66
    17.6800        62
    17.7400        54
    17.8000        54
    17.8600        56
    17.9200        54
    17.9800        60
    18.0400        48
    18.1000        48
    18.1600        56
    18.2200        44
    18.2800        66
    18.3400        50
    18.4000        56
    18.4600        48
    18.5200        62
    18.5800        66
    18.6400        82
    18.7000        80
    18.7600        80
    18.8200        68
    18.8800        60
    18.9400        64
    19.0000        62
    19.0600        48
    19.1200        56
    19.1800        62
    19.2400        54
    19.3000        50
    19.3600        48
    19.4200        52
    19.4800        56
    19.5400        46
    19.6000        42
    19.6600        60
    19.7200        50
    19.7800        54
    19.8400        40
    19.9000        54
    19.9600        64
    20.0200        68
    20.0800        66
    20.1400        56
    20.2000        42
    20.2600        54
    20.3200        50
    20.3800        42
    20.4400        42
    20.5000        50
    20.5600        44
    20.6200        38
    20.6800        66
    20.7400        66
    20.8000        56
    20.8600        28
    20.9200        36
    20.9800        36
    21.0400        36
    21.1000        48
    21.1600        50
    21.2200        48
    21.2800        58
    21.3400        60
    21.4000        56
    21.4600        52
    21.5200        62
    21.5800        52
    21.6400        58
    21.7000        58
    21.7600        52
    21.8200        50
    21.8800        48
    21.9400        48
    22.0000        50
    22.0600        46
    22.1200        52
    22.1800        46
    22.2400        40
    22.3000        42
    22.3600        40
    22.4200        46
    22.4800        38
    22.5400        68
    22.6000        40
    22.6600        42
    22.7200        36
    22.7800        38
    22.8400        52
    22.9000        44
    22.9600        26
    23.0200        34
    23.0800        36
    23.1400        40
    23.2000        36
    23.2600        58
    23.3200        38
    23.3800        44
    23.4400        38
    23.5000        36
    23.5600        48
    23.6200        44
    23.6800        46
    23.7400        34
    23.8000        46
    23.8600        50
    23.9200        46
    23.9800        42
    24.0400        40
    24.1000        36
    24.1600        26
    24.2200        40
    24.2800        48
    24.3400        34
    24.4000        40
    24.4600        42
    24.5200        34
    24.5800        42
    24.6400        38
    24.7000        38
    24.7600        50
    24.8200        38
    24.8800        32
    24.9400        42
    25.0000        42
    25.0600        36
    25.1200        40
    25.1800        36
    25.2400        42
    25.3000        24
    25.3600        30
    25.4200        40
    25.4800        34
    25.5400        52
    25.6000        36
    25.6600        34
    25.7200        30
    25.7800        32
    25.8400        36
    25.9000        42
    25.9600        32
    26.0200        30
    26.0800        38
    26.1400        44
    26.2000        34
    26.2600        42
    26.3200        40
    26.3800        48
    26.4400        52
    26.5000        64
    26.5600        50
    26.6200        44
    26.6800        34
    26.7400        36
    26.8000        40
    26.8600        32
    26.9200        40
    26.9800        38
    27.0400        26
    27.1000        38
    27.1600        34
    27.2200        22
    27.2800        36
    27.3400        36
    27.4000        40
    27.4600        34
    27.5200        26
    27.5800        32
    27.6400        30
    27.7000        32
    27.7600        34
    27.8200        34
    27.8800        32
    27.9400        34
    28.0000        36
    28.0600        40
    28.1200        44
    28.1800        48
    28.2400        32
    28.3000        40
    28.3600        38
    28.4200        40
    28.4800        38
    28.5400        32
    28.6000        28
    28.6600        34
    28.7200        42
    28.7800        44
    28.8400        72
    28.9000        40
    28.9600        30
    29.0200        30
    29.0800        34
    29.1400        28
    29.2000        36
    29.2600        32
    29.3200        36
    29.3800        38
    29.4400        34
    29.5000        36
    29.5600        34
    29.6200        42
    29.6800        34
    29.7400        26
    29.8000        42
    29.8600        48
    29.9200        32
    29.9800        22
    30.0400        32
    30.1000        32
    30.1600        32
    30.2200        36
    30.2800        26
    30.3400        24
    30.4000        44
    30.4600        36
    30.5200        22
    30.5800        50
    30.6400        56
    30.7000       138
    30.7600       150
    30.8200       362
    30.8800       322
    30.9400       304
    31.0000       168
    31.0600        70
    31.1200        40
    31.1800        44
    31.2400        32
    31.3000        26
    31.3600        22
    31.4200        26
    31.4800        34
    31.5400        38
    31.6000        26
    31.6600        24
    31.7200        38
    31.7800        26
    31.8400        26
    31.9000        30
    31.9600        26
    32.0200        32
    32.0800        32
    32.1400        36
    32.2000        38
    32.2600        30
    32.3200        36
    32.3800        34
    32.4400        16
    32.5000        22
    32.5600        34
    32.6200        22
    32.6800        24
    32.7400        42
    32.8000        26
    32.8600        18
    32.9200        42
    32.9800        22
    33.0400        36
    33.1000        48
    33.1600        24
    33.2200        30
    33.2800        36
    33.3400        36
    33.4000        22
    33.4600        30
    33.5200        26
    33.5800        26
    33.6400        26
    33.7000        28
    33.7600        24
    33.8200        30
    33.8800        32
    33.9400        34
    34.0000        32
    34.0600        26
    34.1200        38
    34.1800        34
    34.2400        44
    34.3000        54
    34.3600        74
    34.4200        98
    34.4800       174
    34.5400       324
    34.6000       716
    34.6600      1004
    34.7200       702
    34.7800       392
    34.8400       108
    34.9000        52
    34.9600        40
    35.0200        40
    35.0800        44
    35.1400        32
    35.2000        26
    35.2600        38
    35.3200        30
    35.3800        30
    35.4400        30
    35.5000        34
    35.5600        28
    35.6200        26
    35.6800        30
    35.7400        32
    35.8000        28
    35.8600        24
    35.9200        40
    35.9800        28
    36.0400        30
    36.1000        20
    36.1600        26
    36.2200        36
    36.2800        36
    36.3400        64
    36.4000       142
    36.4600       100
    36.5200        76
    36.5800        52
    36.6400        30
    36.7000        40
    36.7600        26
    36.8200        20
    36.8800        38
    36.9400        24
    37.0000        34
    37.0600        34
    37.1200        36
    37.1800        30
    37.2400        30
    37.3000        34
    37.3600        26
    37.4200        36
    37.4800        32
    37.5400        26
    37.6000        28
    37.6600        26
    37.7200        28
    37.7800        28
    37.8400        22
    37.9000        66
    37.9600        68
    38.0200       178
    38.0800       208
    38.1400       194
    38.2000        86
    38.2600        60
    38.3200        38
    38.3800        34
    38.4400        32
    38.5000        20
    38.5600        36
    38.6200        18
    38.6800        24
    38.7400        30
    38.8000        28
    38.8600        34
    38.9200        28
    38.9800        24
    39.0400        34
    39.1000        30
    39.1600        26
    39.2200        28
    39.2800        22
    39.3400        34
    39.4000        30
    39.4600        32
    39.5200        46
    39.5800        44
    39.6400       102
    39.7000       182
    39.7600       176
    39.8200       104
    39.8800        82
    39.9400        44
    40.0000        32
    40.0600        30
    40.1200        34
    40.1800        44
    40.2400        28
    40.3000        28
    40.3600        26
    40.4200        16
    40.4800        26
    40.5400        26
    40.6000        22
    40.6600        26
    40.7200        26
    40.7800        20
    40.8400        24
    40.9000        24
    40.9600        30
    41.0200        30
    41.0800        30
    41.1400        28
    41.2000        22
    41.2600        26
    41.3200        32
    41.3800        32
    41.4400        26
    41.5000        28
    41.5600        18
    41.6200        28
    41.6800        28
    41.7400        22
    41.8000        24
    41.8600        16
    41.9200        24
    41.9800        34
    42.0400        34
    42.1000        32
    42.1600        32
    42.2200        32
    42.2800        44
    42.3400        48
    42.4000        42
    42.4600        44
    42.5200        34
    42.5800        40
    42.6400        42
    42.7000        66
    42.7600       120
    42.8200       254
    42.8800       110
    42.9400        90
    43.0000        36
    43.0600        24
    43.1200        30
    43.1800        24
    43.2400        28
    43.3000        22
    43.3600        22
    43.4200        20
    43.4800        24
    43.5400        26
    43.6000        24
    43.6600        22
    43.7200        28
    43.7800        22
    43.8400        38
    43.9000        32
    43.9600        18
    44.0200        24
    44.0800        32
    44.1400        30
    44.2000        30
    44.2600        44
    44.3200        48
    44.3800        56
    44.4400        48
    44.5000        26
    44.5600        28
    44.6200        34
    44.6800        38
    44.7400        26
    44.8000        18
    44.8600        28
    44.9200        20
    44.9800        34
    45.0400        22
    45.1000        28
    45.1600        26
    45.2200        18
    45.2800        26
    45.3400        22
    45.4000        24
    45.4600        28
    45.5200        24
    45.5800        30
    45.6400        24
    45.7000        26
    45.7600        26
    45.8200        28
    45.8800        28
    45.9400        26
    46.0000        40
    46.0600        20
    46.1200        30
    46.1800        24
    46.2400        32
    46.3000        22
    46.3600        18
    46.4200        24
    46.4800        22
    46.5400        26
    46.6000        26
    46.6600        22
    46.7200        16
    46.7800        22
    46.8400        22
    46.9000        22
    46.9600        18
    47.0200        16
    47.0800        22
    47.1400        22
    47.2000        32
    47.2600        28
    47.3200        22
    47.3800        26
    47.4400        22
    47.5000        28
    47.5600        20
    47.6200        30
    47.6800        34
    47.7400        32
    47.8000        34
    47.8600        24
    47.9200        30
    47.9800        22
    48.0400        20
    48.1000        28
    48.1600        40
    48.2200        34
    48.2800        44
    48.3400        54
    48.4000       110
    48.4600       310
    48.5200       576
    48.5800       246
    48.6400       284
    48.7000       124
    48.7600        48
    48.8200        36
    48.8800        34
    48.9400        24
    49.0000        26
    49.0600        22
    49.1200        28
    49.1800        26
    49.2400        20
    49.3000        26
    49.3600        26
    49.4200        30
    49.4800        16
    49.5400        16
    49.6000        26
    49.6600        20
    49.7200        24
    49.7800        28
    49.8400        50
    49.9000        40
    49.9600        60
    50.0200        50
    50.0800        40
    50.1400        28
    50.2000        26
    50.2600        28
    50.3200        30
    50.3800        28
    50.4400        14
    50.5000        14
    50.5600        34
    50.6200        24
    50.6800        26
    50.7400        20
    50.8000        16
    50.8600        26
    50.9200        22
    50.9800        20
    51.0400        28
    51.1000        28
    51.1600        24
    51.2200        26
    51.2800        36
    51.3400        32
    51.4000        30
    51.4600        38
    51.5200        26
    51.5800        30
    51.6400        24
    51.7000        26
    51.7600        18
    51.8200        30
    51.8800        18
    51.9400        28
    52.0000        26
    52.0600        26
    52.1200        28
    52.1800        34
    52.2400        24
    52.3000        32
    52.3600        34
    52.4200        22
    52.4800        24
    52.5400        28
    52.6000        26
    52.6600        22
    52.7200        28
    52.7800        18
    52.8400        28
    52.9000        28
    52.9600        34
    53.0200        36
    53.0800        32
    53.1400        30
    53.2000        32
    53.2600        30
    53.3200        28
    53.3800        34
    53.4400        30
    53.5000        28
    53.5600        38
    53.6200        22
    53.6800        30
    53.7400        28
    53.8000        22
    53.8600        32
    53.9200        16
    53.9800        24
    54.0400        26
    54.1000        26
    54.1600        28
    54.2200        24
    54.2800        20
    54.3400        28
    54.4000        22
    54.4600        26
    54.5200        26
    54.5800        28
    54.6400        26
    54.7000        40
    54.7600        46
    54.8200        42
    54.8800        54
    54.9400       100
    55.0000       326
    55.0600       414
    55.1200       208
    55.1800       290
    55.2400       160
    55.3000        50
    55.3600        54
    55.4200        30
    55.4800        30
    55.5400        32
    55.6000        28
    55.6600        32
    55.7200        32
    55.7800        30
    55.8400        28
    55.9000        26
    55.9600        28
    56.0200        34
    56.0800        34
    56.1400        30
    56.2000        26
    56.2600        30
    56.3200        16
    56.3800        28
    56.4400        44
    56.5000        36
    56.5600        24
    56.6200        24
    56.6800        32
    56.7400        36
    56.8000        32
    56.8600        34
    56.9200        26
    56.9800        24
    57.0400        34
    57.1000        26
    57.1600        44
    57.2200        42
    57.2800        30
    57.3400        84
    57.4000       168
    57.4600       398
    57.5200       446
    57.5800       174
    57.6400       218
    57.7000       158
    57.7600        38
    57.8200        36
    57.8800        34
    57.9400        32
    58.0000        36
    58.0600        34
    58.1200        30
    58.1800        24
    58.2400        32
    58.3000        20
    58.3600        40
    58.4200        34
    58.4800        32
    58.5400        38
    58.6000        48
    58.6600        80
    58.7200        58
    58.7800        56
    58.8400        58
    58.9000        28
    58.9600        18
    59.0200        34
    59.0800        26
    59.1400        34
    59.2000        38
    59.2600        30
    59.3200        22
    59.3800        32
    59.4400        32
    59.5000        36
    59.5600        46
    59.6200        40
    59.6800        50
    59.7400       116
    59.8000       282
    59.8600       652
    59.9200       468
    59.9800       240
    60.0400       402
    60.1000       172
    60.1600        60
    60.2200        52
    60.2800        34
    60.3400        28
    60.4000        36
    60.4600        36
    60.5200        34
    60.5800        24
    60.6400        26
    60.7000        24
    60.7600        22
    60.8200        38
    60.8800        28
    60.9400        20
    61.0000        16
    61.0600        38
    61.1200        30
    61.1800        30
    61.2400        12
    61.3000        32
    61.3600        30
    61.4200        22
    61.4800        24
    61.5400        26
    61.6000        26
    61.6600        30
    61.7200        26
    61.7800        32
    61.8400        26
    61.9000        22
    61.9600        18
    62.0200        22
    62.0800        22
    62.1400        32
    62.2000        26
    62.2600        32
    62.3200        28
    62.3800        20
    62.4400        26
    62.5000        26
    62.5600        22
    62.6200        20
    62.6800        20
    62.7400        24
    62.8000        24
    62.8600        28
    62.9200        26
    62.9800        32
    63.0400        36
    63.1000        16
    63.1600        34
    63.2200        26
    63.2800        28
    63.3400        30
    63.4000        26
    63.4600        28
    63.5200        34
    63.5800        38
    63.6400        30
    63.7000        32
    63.7600        28
    63.8200        36
    63.8800        18
    63.9400        26
    64.0000        36
    64.0600        34
    64.1200        42
    64.1800        30
    64.2400        26
    64.3000        28
    64.3600        40
    64.4200       118
    64.4800       548
    64.5400       128
    64.6000       108
    64.6600       298
    64.7200       104
    64.7800        30
    64.8400        38
    64.9000        28
    64.9600        32
    65.0000        30