File: sl1/usgs/library06/DESCRIPT/new_xrd_results_to_be_added/Rhonda_Driscoll_xrd_runs/WS483-Grossularite.txt
/////////////////////////////////////////////////////////////////////////////////
/// Profile Data Ascii Dump (XRD)                                             ///
/////////////////////////////////////////////////////////////////////////////////

  Group     : Swayze
  Data      : WS483
  File Name : WS483.RAW

# Profile Datafile
          comment             = Grossularite
          date & time         = 08-04-09 06:49:21

# Measurement Condition
    X-ray tube
          target              = Cu
          voltage             = 40.0 (kV)
          current             = 30.0 (mA)
    Slits
          divergence slit     = 2.00000 (deg)
          scatter slit        = 2.00000 (deg)
          receiving slit      = 0.15000 (mm)
    Scanning
          drive axis          = Theta-2Theta
          scan range          =    4.000 -   65.000
          scan mode           = Continuous Scan
          scan speed          =   2.0000 (deg/min)
          sampling pitch      =   0.0200 (deg)
          preset time         =   0.60 (sec)

# Data      [ Total No. = 3051 ]
  <2Theta>   <   I   >
     4.0000       164
     4.0600       170
     4.1200       206
     4.1800       160
     4.2400       168
     4.3000       198
     4.3600       170
     4.4200       166
     4.4800       152
     4.5400       158
     4.6000       164
     4.6600       166
     4.7200       160
     4.7800       138
     4.8400       194
     4.9000       158
     4.9600       168
     5.0200       172
     5.0800       164
     5.1400       174
     5.2000       142
     5.2600       148
     5.3200       158
     5.3800       164
     5.4400       180
     5.5000       164
     5.5600       138
     5.6200       156
     5.6800       144
     5.7400       166
     5.8000       178
     5.8600       170
     5.9200       168
     5.9800       162
     6.0400       162
     6.1000       178
     6.1600       162
     6.2200       150
     6.2800       150
     6.3400       170
     6.4000       146
     6.4600       142
     6.5200       138
     6.5800       126
     6.6400       134
     6.7000       120
     6.7600       128
     6.8200       114
     6.8800       140
     6.9400       134
     7.0000       120
     7.0600       116
     7.1200       124
     7.1800       118
     7.2400       120
     7.3000       136
     7.3600       116
     7.4200       114
     7.4800       102
     7.5400       138
     7.6000       106
     7.6600       116
     7.7200        98
     7.7800       124
     7.8400       102
     7.9000       112
     7.9600       112
     8.0200       124
     8.0800       106
     8.1400       114
     8.2000       102
     8.2600       100
     8.3200       120
     8.3800       124
     8.4400       108
     8.5000       108
     8.5600       118
     8.6200        98
     8.6800       136
     8.7400       108
     8.8000       124
     8.8600       108
     8.9200        88
     8.9800       106
     9.0400       106
     9.1000       150
     9.1600        98
     9.2200       128
     9.2800       126
     9.3400       104
     9.4000       124
     9.4600       134
     9.5200       106
     9.5800       106
     9.6400        98
     9.7000       124
     9.7600       118
     9.8200        92
     9.8800       116
     9.9400        96
    10.0000       102
    10.0600       114
    10.1200        98
    10.1800        96
    10.2400       100
    10.3000       106
    10.3600        90
    10.4200        90
    10.4800        84
    10.5400        98
    10.6000       104
    10.6600        88
    10.7200        94
    10.7800        88
    10.8400        80
    10.9000        86
    10.9600        82
    11.0200        98
    11.0800        84
    11.1400        88
    11.2000        98
    11.2600       108
    11.3200        84
    11.3800        98
    11.4400        92
    11.5000        78
    11.5600        68
    11.6200        82
    11.6800        64
    11.7400        84
    11.8000        98
    11.8600        78
    11.9200        84
    11.9800        78
    12.0400        78
    12.1000        82
    12.1600        74
    12.2200        78
    12.2800        70
    12.3400        80
    12.4000        66
    12.4600        58
    12.5200        70
    12.5800        76
    12.6400        74
    12.7000        76
    12.7600        74
    12.8200        66
    12.8800        74
    12.9400        70
    13.0000        72
    13.0600        70
    13.1200        66
    13.1800        80
    13.2400        76
    13.3000        66
    13.3600        68
    13.4200        66
    13.4800        74
    13.5400        56
    13.6000        78
    13.6600        60
    13.7200        56
    13.7800        56
    13.8400        66
    13.9000        62
    13.9600        62
    14.0200        44
    14.0800        64
    14.1400        72
    14.2000        70
    14.2600        70
    14.3200        62
    14.3800        64
    14.4400        62
    14.5000        58
    14.5600        54
    14.6200        70
    14.6800        60
    14.7400        56
    14.8000        62
    14.8600        60
    14.9200        54
    14.9800        62
    15.0400        52
    15.1000        64
    15.1600        56
    15.2200        46
    15.2800        56
    15.3400        50
    15.4000        56
    15.4600        56
    15.5200        56
    15.5800        60
    15.6400        54
    15.7000        44
    15.7600        40
    15.8200        46
    15.8800        54
    15.9400        62
    16.0000        62
    16.0600        36
    16.1200        38
    16.1800        58
    16.2400        54
    16.3000        66
    16.3600        54
    16.4200        50
    16.4800        52
    16.5400        60
    16.6000        54
    16.6600        62
    16.7200        62
    16.7800        48
    16.8400        46
    16.9000        52
    16.9600        62
    17.0200        44
    17.0800        40
    17.1400        40
    17.2000        46
    17.2600        50
    17.3200        46
    17.3800        48
    17.4400        42
    17.5000        60
    17.5600        52
    17.6200        56
    17.6800        58
    17.7400        52
    17.8000        48
    17.8600        42
    17.9200        50
    17.9800        40
    18.0400        46
    18.1000        52
    18.1600        34
    18.2200        50
    18.2800        36
    18.3400        54
    18.4000        40
    18.4600        34
    18.5200        50
    18.5800        32
    18.6400        40
    18.7000        40
    18.7600        44
    18.8200        38
    18.8800        50
    18.9400        44
    19.0000        50
    19.0600        52
    19.1200        46
    19.1800        44
    19.2400        30
    19.3000        44
    19.3600        54
    19.4200        42
    19.4800        50
    19.5400        34
    19.6000        32
    19.6600        36
    19.7200        40
    19.7800        60
    19.8400        46
    19.9000        42
    19.9600        50
    20.0200        48
    20.0800        38
    20.1400        50
    20.2000        32
    20.2600        32
    20.3200        38
    20.3800        40
    20.4400        36
    20.5000        42
    20.5600        38
    20.6200        42
    20.6800        36
    20.7400        44
    20.8000        44
    20.8600        38
    20.9200        38
    20.9800        34
    21.0400        36
    21.1000        50
    21.1600        44
    21.2200        30
    21.2800        44
    21.3400        28
    21.4000        28
    21.4600        34
    21.5200        36
    21.5800        32
    21.6400        46
    21.7000        40
    21.7600        34
    21.8200        44
    21.8800        46
    21.9400        46
    22.0000        46
    22.0600        50
    22.1200        36
    22.1800        40
    22.2400        32
    22.3000        46
    22.3600        38
    22.4200        42
    22.4800        34
    22.5400        36
    22.6000        24
    22.6600        38
    22.7200        42
    22.7800        38
    22.8400        36
    22.9000        30
    22.9600        32
    23.0200        54
    23.0800        32
    23.1400        36
    23.2000        40
    23.2600        34
    23.3200        32
    23.3800        36
    23.4400        32
    23.5000        24
    23.5600        34
    23.6200        30
    23.6800        38
    23.7400        48
    23.8000        38
    23.8600        38
    23.9200        34
    23.9800        40
    24.0400        38
    24.1000        30
    24.1600        30
    24.2200        32
    24.2800        38
    24.3400        28
    24.4000        22
    24.4600        34
    24.5200        28
    24.5800        32
    24.6400        30
    24.7000        26
    24.7600        20
    24.8200        38
    24.8800        22
    24.9400        28
    25.0000        36
    25.0600        26
    25.1200        34
    25.1800        30
    25.2400        36
    25.3000        30
    25.3600        24
    25.4200        34
    25.4800        30
    25.5400        36
    25.6000        30
    25.6600        24
    25.7200        22
    25.7800        20
    25.8400        30
    25.9000        30
    25.9600        22
    26.0200        20
    26.0800        24
    26.1400        24
    26.2000        28
    26.2600        22
    26.3200        22
    26.3800        28
    26.4400        22
    26.5000        34
    26.5600        26
    26.6200        30
    26.6800        26
    26.7400        36
    26.8000        32
    26.8600        30
    26.9200        16
    26.9800        34
    27.0400        26
    27.1000        40
    27.1600        20
    27.2200        26
    27.2800        24
    27.3400        22
    27.4000        28
    27.4600        20
    27.5200        38
    27.5800        38
    27.6400        28
    27.7000        28
    27.7600        30
    27.8200        24
    27.8800        22
    27.9400        40
    28.0000        32
    28.0600        44
    28.1200        36
    28.1800        30
    28.2400        32
    28.3000        28
    28.3600        30
    28.4200        24
    28.4800        28
    28.5400        28
    28.6000        42
    28.6600        28
    28.7200        34
    28.7800        26
    28.8400        22
    28.9000        30
    28.9600        28
    29.0200        22
    29.0800        28
    29.1400        22
    29.2000        38
    29.2600        42
    29.3200        58
    29.3800        44
    29.4400        36
    29.5000        34
    29.5600        50
    29.6200        38
    29.6800        38
    29.7400        60
    29.8000        74
    29.8600       226
    29.9200       512
    29.9800       924
    30.0400       838
    30.1000       356
    30.1600       118
    30.2200        48
    30.2800        56
    30.3400        48
    30.4000        30
    30.4600        32
    30.5200        28
    30.5800        28
    30.6400        26
    30.7000        32
    30.7600        28
    30.8200        18
    30.8800        24
    30.9400        26
    31.0000        18
    31.0600        28
    31.1200        34
    31.1800        26
    31.2400        30
    31.3000        30
    31.3600        26
    31.4200        34
    31.4800        16
    31.5400        42
    31.6000        28
    31.6600        32
    31.7200        26
    31.7800        38
    31.8400        18
    31.9000        22
    31.9600        32
    32.0200        28
    32.0800        26
    32.1400        34
    32.2000        30
    32.2600        30
    32.3200        20
    32.3800        32
    32.4400        34
    32.5000        20
    32.5600        22
    32.6200        38
    32.6800        30
    32.7400        26
    32.8000        28
    32.8600        30
    32.9200        36
    32.9800        28
    33.0400        34
    33.1000        28
    33.1600        46
    33.2200        48
    33.2800        60
    33.3400        90
    33.4000       138
    33.4600       258
    33.5200       826
    33.5800      1236
    33.6400      2290
    33.7000      1536
    33.7600       782
    33.8200       224
    33.8800       100
    33.9400        72
    34.0000        48
    34.0600        42
    34.1200        28
    34.1800        18
    34.2400        32
    34.3000        24
    34.3600        34
    34.4200        26
    34.4800        28
    34.5400        30
    34.6000        26
    34.6600        34
    34.7200        34
    34.7800        24
    34.8400        30
    34.9000        20
    34.9600        38
    35.0200        40
    35.0800        38
    35.1400        30
    35.2000        68
    35.2600       130
    35.3200       220
    35.3800       244
    35.4400       164
    35.5000        58
    35.5600        30
    35.6200        32
    35.6800        22
    35.7400        24
    35.8000        34
    35.8600        24
    35.9200        22
    35.9800        32
    36.0400        20
    36.1000        22
    36.1600        20
    36.2200        18
    36.2800        32
    36.3400        18
    36.4000        18
    36.4600        32
    36.5200        24
    36.5800        34
    36.6400        38
    36.7000        64
    36.7600       106
    36.8200        96
    36.8800       186
    36.9400       290
    37.0000       520
    37.0600       298
    37.1200       152
    37.1800        74
    37.2400        54
    37.3000        36
    37.3600        34
    37.4200        20
    37.4800        22
    37.5400        28
    37.6000        22
    37.6600        30
    37.7200        22
    37.7800        26
    37.8400        10
    37.9000        26
    37.9600        18
    38.0200        26
    38.0800        28
    38.1400        22
    38.2000        32
    38.2600        42
    38.3200        44
    38.3800        62
    38.4400       110
    38.5000       266
    38.5600       424
    38.6200       236
    38.6800       190
    38.7400        56
    38.8000        30
    38.8600        40
    38.9200        30
    38.9800        26
    39.0400        24
    39.1000        18
    39.1600        18
    39.2200        20
    39.2800        28
    39.3400        26
    39.4000        22
    39.4600        18
    39.5200        16
    39.5800        22
    39.6400        20
    39.7000        20
    39.7600        18
    39.8200        18
    39.8800        20
    39.9400        24
    40.0000        32
    40.0600        16
    40.1200        22
    40.1800        20
    40.2400        20
    40.3000        36
    40.3600        34
    40.4200        20
    40.4800        20
    40.5400        24
    40.6000        20
    40.6600        14
    40.7200        26
    40.7800        16
    40.8400        32
    40.9000        26
    40.9600        20
    41.0200        22
    41.0800        16
    41.1400        22
    41.2000        22
    41.2600        28
    41.3200        32
    41.3800        62
    41.4400       116
    41.5000       280
    41.5600       562
    41.6200       322
    41.6800       296
    41.7400        92
    41.8000        38
    41.8600        38
    41.9200        30
    41.9800        22
    42.0400        18
    42.1000        20
    42.1600        34
    42.2200        36
    42.2800        22
    42.3400        24
    42.4000        18
    42.4600        14
    42.5200        24
    42.5800        12
    42.6400        16
    42.7000        26
    42.7600        26
    42.8200        30
    42.8800        42
    42.9400        96
    43.0000        98
    43.0600        82
    43.1200        62
    43.1800        42
    43.2400        20
    43.3000        24
    43.3600        24
    43.4200        30
    43.4800        22
    43.5400        10
    43.6000        18
    43.6600        14
    43.7200        16
    43.7800        22
    43.8400        24
    43.9000        14
    43.9600        28
    44.0200        14
    44.0800        22
    44.1400        28
    44.2000        28
    44.2600         8
    44.3200        28
    44.3800        14
    44.4400        30
    44.5000        18
    44.5600        12
    44.6200        18
    44.6800        14
    44.7400        22
    44.8000        30
    44.8600        26
    44.9200        26
    44.9800        24
    45.0400        22
    45.1000        28
    45.1600        20
    45.2200        18
    45.2800        20
    45.3400        16
    45.4000        16
    45.4600        20
    45.5200        18
    45.5800        14
    45.6400        20
    45.7000        24
    45.7600        22
    45.8200        30
    45.8800        20
    45.9400        24
    46.0000        16
    46.0600        16
    46.1200        22
    46.1800        16
    46.2400        20
    46.3000        20
    46.3600        18
    46.4200        20
    46.4800        22
    46.5400        18
    46.6000        16
    46.6600        34
    46.7200        36
    46.7800        38
    46.8400        50
    46.9000        60
    46.9600       182
    47.0200       374
    47.0800       476
    47.1400       324
    47.2000       248
    47.2600       120
    47.3200        54
    47.3800        36
    47.4400        34
    47.5000        24
    47.5600        20
    47.6200        16
    47.6800        24
    47.7400        12
    47.8000        24
    47.8600        22
    47.9200        16
    47.9800        18
    48.0400        18
    48.1000        20
    48.1600        24
    48.2200        26
    48.2800        38
    48.3400        58
    48.4000        42
    48.4600        40
    48.5200        32
    48.5800        12
    48.6400        16
    48.7000        20
    48.7600        28
    48.8200        18
    48.8800        26
    48.9400        12
    49.0000        22
    49.0600        28
    49.1200        24
    49.1800        16
    49.2400        24
    49.3000        10
    49.3600        20
    49.4200        22
    49.4800        16
    49.5400        20
    49.6000        28
    49.6600        18
    49.7200        14
    49.7800        20
    49.8400        18
    49.9000        18
    49.9600        26
    50.0200        34
    50.0800        24
    50.1400        28
    50.2000        16
    50.2600        18
    50.3200        10
    50.3800        16
    50.4400        28
    50.5000        20
    50.5600        16
    50.6200        20
    50.6800        18
    50.7400        30
    50.8000        20
    50.8600        14
    50.9200        16
    50.9800        22
    51.0400        18
    51.1000        20
    51.1600        28
    51.2200        18
    51.2800        18
    51.3400        16
    51.4000        18
    51.4600        22
    51.5200        22
    51.5800        20
    51.6400        20
    51.7000        18
    51.7600        12
    51.8200        24
    51.8800        18
    51.9400        30
    52.0000        18
    52.0600        24
    52.1200        26
    52.1800        16
    52.2400        20
    52.3000        26
    52.3600        22
    52.4200        16
    52.4800        36
    52.5400        28
    52.6000        16
    52.6600        26
    52.7200        28
    52.7800        24
    52.8400        18
    52.9000        20
    52.9600        14
    53.0200        30
    53.0800        40
    53.1400        60
    53.2000       138
    53.2600       316
    53.3200       604
    53.3800       720
    53.4400       482
    53.5000       368
    53.5600       222
    53.6200        58
    53.6800        34
    53.7400        24
    53.8000        30
    53.8600        34
    53.9200        30
    53.9800        24
    54.0400        24
    54.1000        36
    54.1600        38
    54.2200        18
    54.2800        24
    54.3400        24
    54.4000        14
    54.4600        22
    54.5200        42
    54.5800        30
    54.6400        32
    54.7000        34
    54.7600        32
    54.8200        28
    54.8800        28
    54.9400        30
    55.0000        20
    55.0600        36
    55.1200        26
    55.1800        32
    55.2400        22
    55.3000        34
    55.3600        44
    55.4200        54
    55.4800        80
    55.5400        92
    55.6000       332
    55.6600       594
    55.7200       782
    55.7800       492
    55.8400       458
    55.9000       262
    55.9600        96
    56.0200        54
    56.0800        30
    56.1400        36
    56.2000        24
    56.2600        24
    56.3200        22
    56.3800        24
    56.4400        26
    56.5000        28
    56.5600        26
    56.6200        26
    56.6800        24
    56.7400        28
    56.8000        32
    56.8600        68
    56.9200        42
    56.9800        38
    57.0400        36
    57.1000        34
    57.1600        22
    57.2200        20
    57.2800        38
    57.3400        32
    57.4000        20
    57.4600        40
    57.5200        20
    57.5800        42
    57.6400        44
    57.7000        66
    57.7600        58
    57.8200        78
    57.8800       180
    57.9400       614
    58.0000      1064
    58.0600       640
    58.1200       526
    58.1800       486
    58.2400       204
    58.3000        60
    58.3600        48
    58.4200        32
    58.4800        52
    58.5400        26
    58.6000        28
    58.6600        24
    58.7200        20
    58.7800        22
    58.8400        28
    58.9000        30
    58.9600        20
    59.0200        18
    59.0800        16
    59.1400        16
    59.2000        18
    59.2600        20
    59.3200        14
    59.3800        14
    59.4400        20
    59.5000        22
    59.5600        18
    59.6200        30
    59.6800        24
    59.7400        24
    59.8000        18
    59.8600        24
    59.9200        20
    59.9800        12
    60.0400        26
    60.1000        20
    60.1600        12
    60.2200        18
    60.2800        18
    60.3400        22
    60.4000        14
    60.4600        16
    60.5200        28
    60.5800        16
    60.6400        18
    60.7000        20
    60.7600        24
    60.8200        18
    60.8800        20
    60.9400        18
    61.0000        22
    61.0600        18
    61.1200        20
    61.1800        14
    61.2400        26
    61.3000        42
    61.3600        38
    61.4200        26
    61.4800        24
    61.5400        28
    61.6000        18
    61.6600        20
    61.7200        20
    61.7800        20
    61.8400        18
    61.9000        20
    61.9600        18
    62.0200        18
    62.0800        20
    62.1400        18
    62.2000        26
    62.2600        18
    62.3200        58
    62.3800       102
    62.4400       106
    62.5000        62
    62.5600        70
    62.6200        66
    62.6800        60
    62.7400        34
    62.8000        26
    62.8600        18
    62.9200        30
    62.9800        20
    63.0400        26
    63.1000        12
    63.1600        26
    63.2200        24
    63.2800        24
    63.3400        16
    63.4000        34
    63.4600        38
    63.5200        56
    63.5800        40
    63.6400        28
    63.7000        32
    63.7600        22
    63.8200        26
    63.8800        20
    63.9400        22
    64.0000        10
    64.0600        16
    64.1200        22
    64.1800        16
    64.2400        16
    64.3000        16
    64.3600        18
    64.4200        12
    64.4800        18
    64.5400        32
    64.6000        22
    64.6600        18
    64.7200        14
    64.7800        22
    64.8400        12
    64.9000        22
    64.9600        16
    65.0000        18