File: sl1/usgs/library06/DESCRIPT/new_xrd_results_to_be_added/Rhonda_Driscoll_xrd_runs/WS588-Diopside-Hoefen.txt
/////////////////////////////////////////////////////////////////////////////////
/// Profile Data Ascii Dump (XRD)                                             ///
/////////////////////////////////////////////////////////////////////////////////

  Group     : Swayze
  Data      : WS588
  File Name : WS588.RAW

# Profile Datafile
          comment             = Diopside-Todd
          date & time         = 08-04-15 06:50:20

# Measurement Condition
    X-ray tube
          target              = Cu
          voltage             = 40.0 (kV)
          current             = 30.0 (mA)
    Slits
          divergence slit     = 2.00000 (deg)
          scatter slit        = 2.00000 (deg)
          receiving slit      = 0.15000 (mm)
    Scanning
          drive axis          = Theta-2Theta
          scan range          =    4.000 -   65.000
          scan mode           = Continuous Scan
          scan speed          =   2.0000 (deg/min)
          sampling pitch      =   0.0200 (deg)
          preset time         =   0.60 (sec)

# Data      [ Total No. = 3051 ]
  <2Theta>   <   I   >
     4.0000       188
     4.0600       216
     4.1200       180
     4.1800       204
     4.2400       188
     4.3000       190
     4.3600       168
     4.4200       168
     4.4800       176
     4.5400       174
     4.6000       172
     4.6600       156
     4.7200       188
     4.7800       174
     4.8400       152
     4.9000       168
     4.9600       168
     5.0200       180
     5.0800       160
     5.1400       168
     5.2000       180
     5.2600       166
     5.3200       156
     5.3800       170
     5.4400       176
     5.5000       166
     5.5600       154
     5.6200       138
     5.6800       152
     5.7400       148
     5.8000       142
     5.8600       150
     5.9200       154
     5.9800       146
     6.0400       154
     6.1000       160
     6.1600       136
     6.2200       168
     6.2800       134
     6.3400       154
     6.4000       144
     6.4600       152
     6.5200       152
     6.5800       158
     6.6400       144
     6.7000       122
     6.7600       138
     6.8200       116
     6.8800       138
     6.9400       124
     7.0000       116
     7.0600       100
     7.1200       128
     7.1800       132
     7.2400        94
     7.3000       120
     7.3600       136
     7.4200       110
     7.4800       104
     7.5400       102
     7.6000       116
     7.6600       118
     7.7200       120
     7.7800       122
     7.8400       106
     7.9000       114
     7.9600        92
     8.0200       124
     8.0800       118
     8.1400       120
     8.2000       124
     8.2600        98
     8.3200       118
     8.3800       124
     8.4400       102
     8.5000        94
     8.5600       104
     8.6200       114
     8.6800       124
     8.7400       118
     8.8000       116
     8.8600       108
     8.9200       122
     8.9800       112
     9.0400       106
     9.1000       118
     9.1600       118
     9.2200       114
     9.2800       110
     9.3400       104
     9.4000       100
     9.4600       114
     9.5200       114
     9.5800       138
     9.6400       124
     9.7000       102
     9.7600       116
     9.8200       114
     9.8800       106
     9.9400       108
    10.0000       116
    10.0600       112
    10.1200       122
    10.1800       112
    10.2400       108
    10.3000       126
    10.3600       140
    10.4200       138
    10.4800       124
    10.5400       106
    10.6000        96
    10.6600       106
    10.7200        80
    10.7800       106
    10.8400        88
    10.9000        68
    10.9600       110
    11.0200        96
    11.0800        88
    11.1400        90
    11.2000        84
    11.2600        78
    11.3200        84
    11.3800        78
    11.4400        84
    11.5000        86
    11.5600        80
    11.6200        88
    11.6800        98
    11.7400        72
    11.8000        84
    11.8600        94
    11.9200        82
    11.9800        80
    12.0400        84
    12.1000        86
    12.1600        96
    12.2200        92
    12.2800        68
    12.3400        84
    12.4000       100
    12.4600        74
    12.5200        90
    12.5800        66
    12.6400       100
    12.7000        68
    12.7600        84
    12.8200        74
    12.8800        70
    12.9400        72
    13.0000        70
    13.0600        80
    13.1200        70
    13.1800        92
    13.2400        90
    13.3000        92
    13.3600        72
    13.4200        90
    13.4800       110
    13.5400       186
    13.6000       200
    13.6600        82
    13.7200        84
    13.7800        60
    13.8400        58
    13.9000        62
    13.9600        64
    14.0200        62
    14.0800        54
    14.1400        58
    14.2000        60
    14.2600        56
    14.3200        52
    14.3800        84
    14.4400        62
    14.5000        52
    14.5600        58
    14.6200        70
    14.6800        72
    14.7400        68
    14.8000        72
    14.8600        66
    14.9200        64
    14.9800        72
    15.0400        68
    15.1000        60
    15.1600        54
    15.2200        78
    15.2800        66
    15.3400        74
    15.4000        62
    15.4600        72
    15.5200        48
    15.5800        38
    15.6400        62
    15.7000        52
    15.7600        40
    15.8200        50
    15.8800        50
    15.9400        52
    16.0000        50
    16.0600        60
    16.1200        60
    16.1800        60
    16.2400        60
    16.3000        60
    16.3600        52
    16.4200        62
    16.4800        44
    16.5400        66
    16.6000        50
    16.6600        56
    16.7200        54
    16.7800        62
    16.8400        54
    16.9000        48
    16.9600        64
    17.0200        58
    17.0800        40
    17.1400        54
    17.2000        50
    17.2600        50
    17.3200        54
    17.3800        60
    17.4400        50
    17.5000        54
    17.5600        62
    17.6200        56
    17.6800        58
    17.7400        38
    17.8000        68
    17.8600        50
    17.9200        58
    17.9800        62
    18.0400        44
    18.1000        58
    18.1600        66
    18.2200        66
    18.2800        42
    18.3400        52
    18.4000        46
    18.4600        56
    18.5200        76
    18.5800        44
    18.6400        70
    18.7000        84
    18.7600       100
    18.8200        96
    18.8800        64
    18.9400        52
    19.0000        48
    19.0600        48
    19.1200        44
    19.1800        50
    19.2400        58
    19.3000        48
    19.3600        60
    19.4200        44
    19.4800        52
    19.5400        66
    19.6000        58
    19.6600        66
    19.7200        98
    19.7800        98
    19.8400        72
    19.9000        50
    19.9600        52
    20.0200        48
    20.0800        48
    20.1400        50
    20.2000        44
    20.2600        42
    20.3200        48
    20.3800        48
    20.4400        42
    20.5000        50
    20.5600        58
    20.6200        44
    20.6800        60
    20.7400        72
    20.8000        68
    20.8600        72
    20.9200        52
    20.9800        46
    21.0400        48
    21.1000        50
    21.1600        54
    21.2200        60
    21.2800        54
    21.3400        48
    21.4000        42
    21.4600        40
    21.5200        42
    21.5800        44
    21.6400        50
    21.7000        46
    21.7600        44
    21.8200        44
    21.8800        50
    21.9400        44
    22.0000        40
    22.0600        48
    22.1200        38
    22.1800        48
    22.2400        46
    22.3000        56
    22.3600        58
    22.4200        44
    22.4800        48
    22.5400        48
    22.6000        42
    22.6600        64
    22.7200        52
    22.7800        54
    22.8400        54
    22.9000        28
    22.9600        46
    23.0200        60
    23.0800        46
    23.1400        38
    23.2000        38
    23.2600        42
    23.3200        38
    23.3800        52
    23.4400        48
    23.5000        36
    23.5600        42
    23.6200        40
    23.6800        48
    23.7400        40
    23.8000        50
    23.8600        38
    23.9200        50
    23.9800        46
    24.0400        38
    24.1000        42
    24.1600        42
    24.2200        46
    24.2800        40
    24.3400        46
    24.4000        36
    24.4600        36
    24.5200        26
    24.5800        38
    24.6400        36
    24.7000        46
    24.7600        38
    24.8200        46
    24.8800        36
    24.9400        34
    25.0000        54
    25.0600        36
    25.1200        56
    25.1800        24
    25.2400        36
    25.3000        48
    25.3600        26
    25.4200        36
    25.4800        30
    25.5400        46
    25.6000        44
    25.6600        40
    25.7200        36
    25.7800        36
    25.8400        32
    25.9000        32
    25.9600        40
    26.0200        42
    26.0800        48
    26.1400        44
    26.2000        54
    26.2600        62
    26.3200        66
    26.3800        76
    26.4400       126
    26.5000       216
    26.5600       238
    26.6200       142
    26.6800        84
    26.7400        58
    26.8000        42
    26.8600        42
    26.9200        70
    26.9800        46
    27.0400        72
    27.1000        76
    27.1600        98
    27.2200       108
    27.2800       190
    27.3400       444
    27.4000       632
    27.4600       522
    27.5200       240
    27.5800        82
    27.6400        58
    27.7000        46
    27.7600        54
    27.8200        44
    27.8800        34
    27.9400        48
    28.0000        32
    28.0600        44
    28.1200        52
    28.1800        62
    28.2400        54
    28.3000        84
    28.3600        90
    28.4200        74
    28.4800        66
    28.5400        60
    28.6000        50
    28.6600        52
    28.7200        46
    28.7800        38
    28.8400        58
    28.9000        54
    28.9600        46
    29.0200        60
    29.0800        54
    29.1400        44
    29.2000        74
    29.2600       108
    29.3200       116
    29.3800       166
    29.4400       178
    29.5000       170
    29.5600       252
    29.6200       410
    29.6800       716
    29.7400       944
    29.8000       604
    29.8600       308
    29.9200       272
    29.9800       426
    30.0400       620
    30.1000       760
    30.1600       538
    30.2200       228
    30.2800       110
    30.3400        60
    30.4000        66
    30.4600        64
    30.5200        84
    30.5800        84
    30.6400       116
    30.7000       218
    30.7600       282
    30.8200       192
    30.8800        88
    30.9400        60
    31.0000        48
    31.0600        52
    31.1200        40
    31.1800        42
    31.2400        30
    31.3000        46
    31.3600        42
    31.4200        32
    31.4800        48
    31.5400        30
    31.6000        48
    31.6600        48
    31.7200        34
    31.7800        34
    31.8400        40
    31.9000        38
    31.9600        36
    32.0200        32
    32.0800        32
    32.1400        24
    32.2000        40
    32.2600        42
    32.3200        22
    32.3800        34
    32.4400        40
    32.5000        38
    32.5600        32
    32.6200        30
    32.6800        32
    32.7400        38
    32.8000        46
    32.8600        48
    32.9200        34
    32.9800        52
    33.0400        50
    33.1000        52
    33.1600        48
    33.2200        50
    33.2800        22
    33.3400        28
    33.4000        40
    33.4600        32
    33.5200        30
    33.5800        26
    33.6400        40
    33.7000        32
    33.7600        40
    33.8200        36
    33.8800        34
    33.9400        34
    34.0000        38
    34.0600        30
    34.1200        28
    34.1800        34
    34.2400        34
    34.3000        32
    34.3600        42
    34.4200        46
    34.4800        62
    34.5400        50
    34.6000        84
    34.6600       102
    34.7200       168
    34.7800       276
    34.8400       242
    34.9000       160
    34.9600        94
    35.0200        66
    35.0800        80
    35.1400        82
    35.2000       152
    35.2600       188
    35.3200       332
    35.3800       386
    35.4400       402
    35.5000       296
    35.5600       172
    35.6200       116
    35.6800        74
    35.7400        44
    35.8000        40
    35.8600        36
    35.9200        44
    35.9800        40
    36.0400        40
    36.1000        40
    36.1600        34
    36.2200        36
    36.2800        34
    36.3400        38
    36.4000        26
    36.4600        46
    36.5200        34
    36.5800        26
    36.6400        32
    36.7000        38
    36.7600        34
    36.8200        28
    36.8800        38
    36.9400        32
    37.0000        22
    37.0600        22
    37.1200        10
    37.1800        38
    37.2400        26
    37.3000        34
    37.3600        22
    37.4200        24
    37.4800        32
    37.5400        42
    37.6000        36
    37.6600        38
    37.7200        32
    37.7800        28
    37.8400        30
    37.9000        40
    37.9600        36
    38.0200        42
    38.0800        48
    38.1400        60
    38.2000        72
    38.2600        52
    38.3200        66
    38.3800        34
    38.4400        24
    38.5000        32
    38.5600        32
    38.6200        32
    38.6800        46
    38.7400        64
    38.8000       106
    38.8600       106
    38.9200        76
    38.9800        60
    39.0400        36
    39.1000        38
    39.1600        50
    39.2200        40
    39.2800        32
    39.3400        48
    39.4000        56
    39.4600        40
    39.5200        38
    39.5800        34
    39.6400        24
    39.7000        26
    39.7600        28
    39.8200        38
    39.8800        34
    39.9400        22
    40.0000        26
    40.0600        52
    40.1200        28
    40.1800        52
    40.2400        40
    40.3000        44
    40.3600        60
    40.4200        76
    40.4800        86
    40.5400        64
    40.6000        68
    40.6600        54
    40.7200        52
    40.7800        74
    40.8400        50
    40.9000        72
    40.9600        34
    41.0200        30
    41.0800        40
    41.1400        32
    41.2000        44
    41.2600        44
    41.3200        42
    41.3800        50
    41.4400        60
    41.5000        70
    41.5600       120
    41.6200       182
    41.6800       260
    41.7400       222
    41.8000       148
    41.8600        96
    41.9200        62
    41.9800        68
    42.0400       124
    42.1000       202
    42.1600       294
    42.2200       262
    42.2800       212
    42.3400       132
    42.4000        98
    42.4600        54
    42.5200        64
    42.5800        70
    42.6400       132
    42.7000       158
    42.7600       114
    42.8200       116
    42.8800        60
    42.9400        40
    43.0000        38
    43.0600        40
    43.1200        40
    43.1800        46
    43.2400        62
    43.3000        68
    43.3600        44
    43.4200        42
    43.4800        34
    43.5400        42
    43.6000        32
    43.6600        24
    43.7200        22
    43.7800        28
    43.8400        30
    43.9000        38
    43.9600        36
    44.0200        56
    44.0800        88
    44.1400       150
    44.2000       120
    44.2600        68
    44.3200        52
    44.3800        46
    44.4400        40
    44.5000        32
    44.5600        30
    44.6200        56
    44.6800        64
    44.7400        86
    44.8000       112
    44.8600       126
    44.9200        80
    44.9800        88
    45.0400        66
    45.1000        32
    45.1600        52
    45.2200        28
    45.2800        18
    45.3400        24
    45.4000        48
    45.4600        22
    45.5200        30
    45.5800        24
    45.6400        34
    45.7000        44
    45.7600        30
    45.8200        44
    45.8800        46
    45.9400        52
    46.0000        54
    46.0600        46
    46.1200        36
    46.1800        38
    46.2400        46
    46.3000        42
    46.3600        40
    46.4200        24
    46.4800        34
    46.5400        34
    46.6000        34
    46.6600        26
    46.7200        26
    46.7800        22
    46.8400        28
    46.9000        24
    46.9600        28
    47.0200        38
    47.0800        24
    47.1400        24
    47.2000        30
    47.2600        28
    47.3200        24
    47.3800        36
    47.4400        28
    47.5000        28
    47.5600        32
    47.6200        36
    47.6800        48
    47.7400        40
    47.8000        48
    47.8600        38
    47.9200        40
    47.9800        32
    48.0400        32
    48.1000        28
    48.1600        22
    48.2200        28
    48.2800        28
    48.3400        32
    48.4000        42
    48.4600        26
    48.5200        50
    48.5800        48
    48.6400        64
    48.7000        60
    48.7600        50
    48.8200        60
    48.8800        30
    48.9400        34
    49.0000        30
    49.0600        28
    49.1200        36
    49.1800        52
    49.2400        44
    49.3000       100
    49.3600       134
    49.4200        92
    49.4800       112
    49.5400        66
    49.6000        50
    49.6600        38
    49.7200        34
    49.7800        34
    49.8400        16
    49.9000        38
    49.9600        48
    50.0200        48
    50.0800        58
    50.1400        44
    50.2000        36
    50.2600        36
    50.3200        38
    50.3800        46
    50.4400        32
    50.5000        28
    50.5600        42
    50.6200        28
    50.6800        30
    50.7400        30
    50.8000        24
    50.8600        22
    50.9200        36
    50.9800        34
    51.0400        34
    51.1000        40
    51.1600        42
    51.2200        26
    51.2800        42
    51.3400        30
    51.4000        30
    51.4600        26
    51.5200        30
    51.5800        26
    51.6400        48
    51.7000        56
    51.7600        74
    51.8200       192
    51.8800       326
    51.9400       346
    52.0000       222
    52.0600       198
    52.1200        96
    52.1800        40
    52.2400        34
    52.3000        40
    52.3600        28
    52.4200        36
    52.4800        30
    52.5400        34
    52.6000        36
    52.6600        34
    52.7200        32
    52.7800        26
    52.8400        30
    52.9000        28
    52.9600        24
    53.0200        38
    53.0800        28
    53.1400        32
    53.2000        44
    53.2600        20
    53.3200        28
    53.3800        26
    53.4400        28
    53.5000        30
    53.5600        30
    53.6200        32
    53.6800        30
    53.7400        28
    53.8000        32
    53.8600        30
    53.9200        34
    53.9800        52
    54.0400        22
    54.1000        34
    54.1600        36
    54.2200        52
    54.2800        48
    54.3400        32
    54.4000        28
    54.4600        34
    54.5200        44
    54.5800        60
    54.6400        62
    54.7000        56
    54.7600        62
    54.8200        48
    54.8800        40
    54.9400        42
    55.0000        46
    55.0600        36
    55.1200        30
    55.1800        60
    55.2400        44
    55.3000        44
    55.3600        46
    55.4200        42
    55.4800        34
    55.5400        36
    55.6000        34
    55.6600        32
    55.7200        44
    55.7800        28
    55.8400        34
    55.9000        38
    55.9600        26
    56.0200        32
    56.0800        48
    56.1400        60
    56.2000        70
    56.2600        98
    56.3200       226
    56.3800       250
    56.4400       190
    56.5000       200
    56.5600       180
    56.6200       196
    56.6800       196
    56.7400       134
    56.8000       130
    56.8600        94
    56.9200        60
    56.9800        54
    57.0400        42
    57.1000        24
    57.1600        34
    57.2200        26
    57.2800        36
    57.3400        36
    57.4000        30
    57.4600        64
    57.5200        48
    57.5800        44
    57.6400        34
    57.7000        28
    57.7600        48
    57.8200        62
    57.8800        46
    57.9400        52
    58.0000        30
    58.0600        30
    58.1200        28
    58.1800        28
    58.2400        28
    58.3000        24
    58.3600        36
    58.4200        28
    58.4800        30
    58.5400        34
    58.6000        40
    58.6600        84
    58.7200       194
    58.7800       172
    58.8400       106
    58.9000       108
    58.9600        78
    59.0200        44
    59.0800        48
    59.1400        46
    59.2000        48
    59.2600        82
    59.3200       174
    59.3800       144
    59.4400        78
    59.5000        86
    59.5600        78
    59.6200        60
    59.6800        36
    59.7400        32
    59.8000        42
    59.8600        52
    59.9200        44
    59.9800        40
    60.0400        52
    60.1000        38
    60.1600        40
    60.2200        64
    60.2800       104
    60.3400       134
    60.4000       132
    60.4600       104
    60.5200        82
    60.5800        70
    60.6400        58
    60.7000        38
    60.7600        52
    60.8200        40
    60.8800        42
    60.9400        54
    61.0000        30
    61.0600        50
    61.1200        38
    61.1800        38
    61.2400        60
    61.3000        64
    61.3600        58
    61.4200        84
    61.4800        48
    61.5400        64
    61.6000        66
    61.6600        38
    61.7200        34
    61.7800        46
    61.8400        40
    61.9000        52
    61.9600        44
    62.0200        50
    62.0800        64
    62.1400       110
    62.2000        54
    62.2600        64
    62.3200        66
    62.3800        46
    62.4400        50
    62.5000        40
    62.5600        30
    62.6200        34
    62.6800        36
    62.7400        26
    62.8000        28
    62.8600        38
    62.9200        26
    62.9800        28
    63.0400        36
    63.1000        22
    63.1600        26
    63.2200        32
    63.2800        38
    63.3400        30
    63.4000        30
    63.4600        30
    63.5200        36
    63.5800        30
    63.6400        34
    63.7000        20
    63.7600        28
    63.8200        24
    63.8800        30
    63.9400        36
    64.0000        44
    64.0600        52
    64.1200        54
    64.1800        50
    64.2400        60
    64.3000        32
    64.3600        42
    64.4200        44
    64.4800        44
    64.5400        30
    64.6000        42
    64.6600        38
    64.7200        42
    64.7800        36
    64.8400        28
    64.9000        38
    64.9600        48
    65.0000        56