File: sl1/usgs/library06/DESCRIPT/new_xrd_results_to_be_added/Rhonda_Driscoll_xrd_runs/WS592-Diopside-Hoefen.txt
/////////////////////////////////////////////////////////////////////////////////
/// Profile Data Ascii Dump (XRD)                                             ///
/////////////////////////////////////////////////////////////////////////////////

  Group     : GPlumlee
  Data      : WS592
  File Name : WS592.RAW

# Profile Datafile
          comment             = Diopside?-Hoefen
          date & time         = 08-04-16 08:46:14

# Measurement Condition
    X-ray tube
          target              = Cu
          voltage             = 40.0 (kV)
          current             = 30.0 (mA)
    Slits
          divergence slit     = 2.00000 (deg)
          scatter slit        = 2.00000 (deg)
          receiving slit      = 0.15000 (mm)
    Scanning
          drive axis          = Theta-2Theta
          scan range          =    4.000 -   65.000
          scan mode           = Continuous Scan
          scan speed          =   2.0000 (deg/min)
          sampling pitch      =   0.0200 (deg)
          preset time         =   0.60 (sec)

# Data      [ Total No. = 3051 ]
  <2Theta>   <   I   >
     4.0000       196
     4.0600       192
     4.1200       180
     4.1800       182
     4.2400       150
     4.3000       180
     4.3600       166
     4.4200       176
     4.4800       154
     4.5400       166
     4.6000       148
     4.6600       160
     4.7200       170
     4.7800       144
     4.8400       142
     4.9000       164
     4.9600       162
     5.0200       162
     5.0800       134
     5.1400       150
     5.2000       148
     5.2600       150
     5.3200       136
     5.3800       152
     5.4400       136
     5.5000       126
     5.5600       144
     5.6200       182
     5.6800       166
     5.7400       172
     5.8000       156
     5.8600       172
     5.9200       156
     5.9800       142
     6.0400       174
     6.1000       152
     6.1600       164
     6.2200       146
     6.2800       150
     6.3400       126
     6.4000       140
     6.4600       134
     6.5200       136
     6.5800       130
     6.6400       136
     6.7000       134
     6.7600       132
     6.8200       116
     6.8800       136
     6.9400        98
     7.0000       120
     7.0600       142
     7.1200       122
     7.1800       120
     7.2400       106
     7.3000       114
     7.3600       102
     7.4200       130
     7.4800        88
     7.5400       108
     7.6000       108
     7.6600       102
     7.7200       116
     7.7800        86
     7.8400       114
     7.9000       126
     7.9600       106
     8.0200        94
     8.0800        98
     8.1400       112
     8.2000       114
     8.2600        94
     8.3200       110
     8.3800       104
     8.4400       114
     8.5000        90
     8.5600       102
     8.6200       110
     8.6800       102
     8.7400       106
     8.8000       106
     8.8600        98
     8.9200       110
     8.9800       104
     9.0400       102
     9.1000        94
     9.1600        94
     9.2200       114
     9.2800       120
     9.3400       116
     9.4000       108
     9.4600       106
     9.5200       110
     9.5800        86
     9.6400       120
     9.7000       106
     9.7600       104
     9.8200       104
     9.8800       112
     9.9400       106
    10.0000        96
    10.0600       102
    10.1200        84
    10.1800        96
    10.2400        82
    10.3000       100
    10.3600        92
    10.4200        88
    10.4800        90
    10.5400        84
    10.6000        92
    10.6600        98
    10.7200        94
    10.7800       100
    10.8400        82
    10.9000        84
    10.9600        90
    11.0200        86
    11.0800        82
    11.1400       106
    11.2000        72
    11.2600        84
    11.3200        84
    11.3800        86
    11.4400        86
    11.5000        76
    11.5600        90
    11.6200        80
    11.6800        86
    11.7400        84
    11.8000        76
    11.8600        80
    11.9200        74
    11.9800        70
    12.0400        92
    12.1000        96
    12.1600        82
    12.2200        70
    12.2800        62
    12.3400        72
    12.4000        78
    12.4600        82
    12.5200        74
    12.5800        84
    12.6400        82
    12.7000        70
    12.7600        68
    12.8200        74
    12.8800        78
    12.9400        78
    13.0000        54
    13.0600        80
    13.1200        64
    13.1800        66
    13.2400        64
    13.3000        70
    13.3600        68
    13.4200        76
    13.4800        80
    13.5400        76
    13.6000        66
    13.6600        74
    13.7200        72
    13.7800        68
    13.8400        54
    13.9000        60
    13.9600        54
    14.0200        58
    14.0800        72
    14.1400        70
    14.2000        62
    14.2600        52
    14.3200        66
    14.3800        64
    14.4400        48
    14.5000        48
    14.5600        50
    14.6200        58
    14.6800        64
    14.7400        64
    14.8000        54
    14.8600        62
    14.9200        48
    14.9800        58
    15.0400        50
    15.1000        76
    15.1600        64
    15.2200        48
    15.2800        78
    15.3400        50
    15.4000        58
    15.4600        42
    15.5200        60
    15.5800        50
    15.6400        74
    15.7000        54
    15.7600        58
    15.8200        42
    15.8800        54
    15.9400        64
    16.0000        52
    16.0600        54
    16.1200        44
    16.1800        56
    16.2400        54
    16.3000        44
    16.3600        54
    16.4200        56
    16.4800        42
    16.5400        40
    16.6000        42
    16.6600        42
    16.7200        62
    16.7800        62
    16.8400        48
    16.9000        50
    16.9600        50
    17.0200        40
    17.0800        56
    17.1400        52
    17.2000        42
    17.2600        58
    17.3200        52
    17.3800        48
    17.4400        42
    17.5000        60
    17.5600        50
    17.6200        52
    17.6800        52
    17.7400        52
    17.8000        58
    17.8600        48
    17.9200        38
    17.9800        50
    18.0400        58
    18.1000        56
    18.1600        62
    18.2200        56
    18.2800        62
    18.3400        40
    18.4000        44
    18.4600        54
    18.5200        60
    18.5800        50
    18.6400        54
    18.7000        52
    18.7600        60
    18.8200        48
    18.8800        64
    18.9400        62
    19.0000        58
    19.0600        40
    19.1200        44
    19.1800        52
    19.2400        48
    19.3000        54
    19.3600        50
    19.4200        50
    19.4800        46
    19.5400        52
    19.6000        50
    19.6600        70
    19.7200        68
    19.7800        88
    19.8400       136
    19.9000        94
    19.9600        50
    20.0200        50
    20.0800        54
    20.1400        54
    20.2000        46
    20.2600        58
    20.3200        48
    20.3800        58
    20.4400        40
    20.5000        44
    20.5600        34
    20.6200        42
    20.6800        42
    20.7400        42
    20.8000        48
    20.8600        42
    20.9200        54
    20.9800        38
    21.0400        44
    21.1000        48
    21.1600        38
    21.2200        40
    21.2800        50
    21.3400        32
    21.4000        42
    21.4600        40
    21.5200        52
    21.5800        32
    21.6400        38
    21.7000        48
    21.7600        40
    21.8200        38
    21.8800        42
    21.9400        48
    22.0000        40
    22.0600        26
    22.1200        28
    22.1800        44
    22.2400        26
    22.3000        38
    22.3600        38
    22.4200        40
    22.4800        34
    22.5400        40
    22.6000        46
    22.6600        36
    22.7200        38
    22.7800        48
    22.8400        28
    22.9000        40
    22.9600        42
    23.0200        42
    23.0800        40
    23.1400        36
    23.2000        34
    23.2600        28
    23.3200        34
    23.3800        42
    23.4400        46
    23.5000        36
    23.5600        36
    23.6200        38
    23.6800        46
    23.7400        30
    23.8000        36
    23.8600        50
    23.9200        38
    23.9800        32
    24.0400        50
    24.1000        38
    24.1600        46
    24.2200        42
    24.2800        36
    24.3400        58
    24.4000        42
    24.4600        52
    24.5200        46
    24.5800        38
    24.6400        34
    24.7000        52
    24.7600        40
    24.8200        46
    24.8800        44
    24.9400        34
    25.0000        32
    25.0600        36
    25.1200        30
    25.1800        32
    25.2400        26
    25.3000        30
    25.3600        40
    25.4200        48
    25.4800        18
    25.5400        38
    25.6000        46
    25.6600        18
    25.7200        44
    25.7800        34
    25.8400        46
    25.9000        50
    25.9600        34
    26.0200        54
    26.0800        36
    26.1400        32
    26.2000        44
    26.2600        34
    26.3200        44
    26.3800        62
    26.4400        54
    26.5000        98
    26.5600       132
    26.6200       100
    26.6800        74
    26.7400        50
    26.8000        58
    26.8600        52
    26.9200        44
    26.9800        46
    27.0400        40
    27.1000        42
    27.1600        48
    27.2200        62
    27.2800        80
    27.3400       114
    27.4000       186
    27.4600       318
    27.5200       530
    27.5800       784
    27.6400       532
    27.7000       264
    27.7600        82
    27.8200        64
    27.8800        48
    27.9400        52
    28.0000        38
    28.0600        46
    28.1200        36
    28.1800        26
    28.2400        46
    28.3000        44
    28.3600        44
    28.4200        38
    28.4800        44
    28.5400        48
    28.6000        46
    28.6600        40
    28.7200        28
    28.7800        42
    28.8400        40
    28.9000        40
    28.9600        46
    29.0200        40
    29.0800        34
    29.1400        60
    29.2000        52
    29.2600        54
    29.3200        62
    29.3800        96
    29.4400       124
    29.5000       172
    29.5600       374
    29.6200       558
    29.6800       834
    29.7400       880
    29.8000       660
    29.8600       334
    29.9200       174
    29.9800       136
    30.0400       112
    30.1000       146
    30.1600       292
    30.2200       508
    30.2800       692
    30.3400       682
    30.4000       428
    30.4600       228
    30.5200       120
    30.5800       134
    30.6400       244
    30.7000       342
    30.7600       450
    30.8200       270
    30.8800       128
    30.9400        76
    31.0000        58
    31.0600        34
    31.1200        40
    31.1800        36
    31.2400        38
    31.3000        30
    31.3600        36
    31.4200        28
    31.4800        38
    31.5400        32
    31.6000        40
    31.6600        34
    31.7200        32
    31.7800        36
    31.8400        32
    31.9000        20
    31.9600        34
    32.0200        34
    32.0800        34
    32.1400        26
    32.2000        22
    32.2600        42
    32.3200        32
    32.3800        26
    32.4400        34
    32.5000        22
    32.5600        34
    32.6200        32
    32.6800        36
    32.7400        26
    32.8000        26
    32.8600        34
    32.9200        46
    32.9800        34
    33.0400        28
    33.1000        28
    33.1600        26
    33.2200        28
    33.2800        32
    33.3400        34
    33.4000        36
    33.4600        32
    33.5200        30
    33.5800        24
    33.6400        32
    33.7000        30
    33.7600        28
    33.8200        34
    33.8800        36
    33.9400        38
    34.0000        32
    34.0600        24
    34.1200        38
    34.1800        34
    34.2400        36
    34.3000        44
    34.3600        46
    34.4200        40
    34.4800        42
    34.5400        64
    34.6000        50
    34.6600        76
    34.7200        80
    34.7800       168
    34.8400       256
    34.9000       376
    34.9600       236
    35.0200       146
    35.0800       114
    35.1400        92
    35.2000       112
    35.2600        98
    35.3200       102
    35.3800       204
    35.4400       218
    35.5000       248
    35.5600       226
    35.6200       208
    35.6800       296
    35.7400       308
    35.8000       316
    35.8600       192
    35.9200        80
    35.9800        68
    36.0400        54
    36.1000        46
    36.1600        44
    36.2200        42
    36.2800        34
    36.3400        40
    36.4000        28
    36.4600        30
    36.5200        36
    36.5800        40
    36.6400        30
    36.7000        36
    36.7600        28
    36.8200        26
    36.8800        30
    36.9400        20
    37.0000        28
    37.0600        34
    37.1200        22
    37.1800        30
    37.2400        18
    37.3000        30
    37.3600        24
    37.4200        22
    37.4800        26
    37.5400        44
    37.6000        48
    37.6600        44
    37.7200        36
    37.7800        34
    37.8400        32
    37.9000        32
    37.9600        28
    38.0200        30
    38.0800        32
    38.1400        24
    38.2000        20
    38.2600        32
    38.3200        36
    38.3800        32
    38.4400        40
    38.5000        26
    38.5600        40
    38.6200        26
    38.6800        30
    38.7400        20
    38.8000        30
    38.8600        28
    38.9200        42
    38.9800        36
    39.0400        54
    39.1000        60
    39.1600       112
    39.2200       162
    39.2800       136
    39.3400       112
    39.4000        80
    39.4600        42
    39.5200        36
    39.5800        26
    39.6400        36
    39.7000        36
    39.7600        34
    39.8200        32
    39.8800        28
    39.9400        50
    40.0000        30
    40.0600        36
    40.1200        34
    40.1800        36
    40.2400        46
    40.3000        30
    40.3600        44
    40.4200        36
    40.4800        34
    40.5400        40
    40.6000        68
    40.6600        86
    40.7200        74
    40.7800       100
    40.8400        90
    40.9000        72
    40.9600        88
    41.0200        68
    41.0800        52
    41.1400        46
    41.2000        32
    41.2600        36
    41.3200        28
    41.3800        36
    41.4400        40
    41.5000        36
    41.5600        32
    41.6200        46
    41.6800        50
    41.7400        52
    41.8000       120
    41.8600       140
    41.9200       306
    41.9800       216
    42.0400       186
    42.1000       142
    42.1600       156
    42.2200       218
    42.2800       312
    42.3400       240
    42.4000       186
    42.4600       100
    42.5200        68
    42.5800        50
    42.6400        68
    42.7000        90
    42.7600       150
    42.8200       116
    42.8800       106
    42.9400        72
    43.0000        46
    43.0600        42
    43.1200        38
    43.1800        42
    43.2400        64
    43.3000        40
    43.3600        42
    43.4200        40
    43.4800        32
    43.5400        40
    43.6000        46
    43.6600        62
    43.7200        44
    43.7800        40
    43.8400        32
    43.9000        40
    43.9600        40
    44.0200        36
    44.0800        50
    44.1400        50
    44.2000        76
    44.2600        92
    44.3200       216
    44.3800       160
    44.4400       130
    44.5000       106
    44.5600        76
    44.6200        86
    44.6800       120
    44.7400       118
    44.8000        86
    44.8600        68
    44.9200        64
    44.9800        48
    45.0400        46
    45.1000        46
    45.1600        42
    45.2200        62
    45.2800        62
    45.3400        52
    45.4000        42
    45.4600        30
    45.5200        38
    45.5800        38
    45.6400        30
    45.7000        26
    45.7600        26
    45.8200        46
    45.8800        34
    45.9400        54
    46.0000        50
    46.0600        38
    46.1200        34
    46.1800        34
    46.2400        26
    46.3000        26
    46.3600        40
    46.4200        36
    46.4800        38
    46.5400        34
    46.6000        40
    46.6600        22
    46.7200        30
    46.7800        24
    46.8400        22
    46.9000        18
    46.9600        22
    47.0200        20
    47.0800        28
    47.1400        30
    47.2000        28
    47.2600        16
    47.3200        22
    47.3800        24
    47.4400        28
    47.5000        26
    47.5600        26
    47.6200        18
    47.6800        22
    47.7400        22
    47.8000        30
    47.8600        32
    47.9200        36
    47.9800        34
    48.0400        28
    48.1000        36
    48.1600        28
    48.2200        16
    48.2800        30
    48.3400        26
    48.4000        22
    48.4600        28
    48.5200        22
    48.5800        24
    48.6400        26
    48.7000        22
    48.7600        22
    48.8200        24
    48.8800        22
    48.9400        28
    49.0000        32
    49.0600        32
    49.1200        48
    49.1800        42
    49.2400        40
    49.3000        36
    49.3600        42
    49.4200        34
    49.4800        30
    49.5400        32
    49.6000        46
    49.6600       104
    49.7200       130
    49.7800       156
    49.8400       126
    49.9000       110
    49.9600        84
    50.0200        62
    50.0800        46
    50.1400        46
    50.2000        28
    50.2600        34
    50.3200        40
    50.3800        38
    50.4400        42
    50.5000        40
    50.5600        30
    50.6200        30
    50.6800        28
    50.7400        42
    50.8000        36
    50.8600        34
    50.9200        22
    50.9800        20
    51.0400        28
    51.1000        28
    51.1600        34
    51.2200        18
    51.2800        28
    51.3400        22
    51.4000        38
    51.4600        22
    51.5200        18
    51.5800        30
    51.6400        40
    51.7000        32
    51.7600        46
    51.8200        40
    51.8800        46
    51.9400        44
    52.0000        86
    52.0600       138
    52.1200       204
    52.1800       218
    52.2400       146
    52.3000       116
    52.3600        94
    52.4200        50
    52.4800        40
    52.5400        42
    52.6000        32
    52.6600        22
    52.7200        30
    52.7800        30
    52.8400        28
    52.9000        30
    52.9600        30
    53.0200        42
    53.0800        36
    53.1400        36
    53.2000        28
    53.2600        28
    53.3200        30
    53.3800        24
    53.4400        32
    53.5000        30
    53.5600        26
    53.6200        32
    53.6800        36
    53.7400        24
    53.8000        32
    53.8600        28
    53.9200        34
    53.9800        24
    54.0400        36
    54.1000        26
    54.1600        24
    54.2200        38
    54.2800        32
    54.3400        38
    54.4000        30
    54.4600        42
    54.5200        38
    54.5800        30
    54.6400        48
    54.7000        42
    54.7600        56
    54.8200        86
    54.8800        92
    54.9400        60
    55.0000        66
    55.0600        72
    55.1200        60
    55.1800        42
    55.2400        46
    55.3000        44
    55.3600        42
    55.4200        30
    55.4800        32
    55.5400        28
    55.6000        40
    55.6600        32
    55.7200        32
    55.7800        34
    55.8400        30
    55.9000        28
    55.9600        38
    56.0200        30
    56.0800        42
    56.1400        36
    56.2000        60
    56.2600        68
    56.3200        76
    56.3800       120
    56.4400       180
    56.5000       268
    56.5600       364
    56.6200       304
    56.6800       168
    56.7400       212
    56.8000        98
    56.8600        78
    56.9200        66
    56.9800       122
    57.0400       118
    57.1000        88
    57.1600        84
    57.2200        82
    57.2800        64
    57.3400        38
    57.4000        48
    57.4600        38
    57.5200        38
    57.5800        34
    57.6400        36
    57.7000        18
    57.7600        28
    57.8200        30
    57.8800        34
    57.9400        26
    58.0000        34
    58.0600        30
    58.1200        46
    58.1800        74
    58.2400        50
    58.3000        54
    58.3600        52
    58.4200        36
    58.4800        20
    58.5400        40
    58.6000        30
    58.6600        40
    58.7200        20
    58.7800        34
    58.8400        20
    58.9000        24
    58.9600        34
    59.0200        40
    59.0800        54
    59.1400       118
    59.2000        90
    59.2600        78
    59.3200       148
    59.3800        56
    59.4400        72
    59.5000        70
    59.5600        70
    59.6200       112
    59.6800       168
    59.7400       122
    59.8000        76
    59.8600       104
    59.9200        56
    59.9800        46
    60.0400        46
    60.1000        44
    60.1600        60
    60.2200        76
    60.2800       100
    60.3400        58
    60.4000        56
    60.4600        70
    60.5200        42
    60.5800        60
    60.6400        58
    60.7000        46
    60.7600        44
    60.8200        52
    60.8800        44
    60.9400        58
    61.0000        50
    61.0600        50
    61.1200        60
    61.1800        68
    61.2400        40
    61.3000        54
    61.3600        64
    61.4200        62
    61.4800        80
    61.5400        86
    61.6000        78
    61.6600        60
    61.7200        58
    61.7800        62
    61.8400        32
    61.9000        38
    61.9600        32
    62.0200        26
    62.0800        30
    62.1400        40
    62.2000        30
    62.2600        38
    62.3200        70
    62.3800       152
    62.4400       134
    62.5000       128
    62.5600        88
    62.6200        84
    62.6800        50
    62.7400        44
    62.8000        28
    62.8600        38
    62.9200        32
    62.9800        24
    63.0400        30
    63.1000        42
    63.1600        34
    63.2200        38
    63.2800        22
    63.3400        32
    63.4000        40
    63.4600        28
    63.5200        22
    63.5800        22
    63.6400        22
    63.7000        26
    63.7600        30
    63.8200        46
    63.8800        36
    63.9400        44
    64.0000        34
    64.0600        42
    64.1200        58
    64.1800        56
    64.2400        44
    64.3000        28
    64.3600        44
    64.4200        34
    64.4800        22
    64.5400        28
    64.6000        22
    64.6600        28
    64.7200        30
    64.7800        26
    64.8400        24
    64.9000        34
    64.9600        38
    65.0000        38