File: sl1/usgs/library06/DESCRIPT/new_xrd_results_to_be_added/Rhonda_Driscoll_xrd_runs/WS661-Annite-ferrous-biotite.txt
/////////////////////////////////////////////////////////////////////////////////
/// Profile Data Ascii Dump (XRD)                                             ///
/////////////////////////////////////////////////////////////////////////////////

  Group     : Swayze
  Data      : WS661
  File Name : WS661.RAW

# Profile Datafile
          comment             = Annite-ferrous biotite
          date & time         = 08-04-08 08:59:07

# Measurement Condition
    X-ray tube
          target              = Cu
          voltage             = 40.0 (kV)
          current             = 30.0 (mA)
    Slits
          divergence slit     = 2.00000 (deg)
          scatter slit        = 2.00000 (deg)
          receiving slit      = 0.15000 (mm)
    Scanning
          drive axis          = Theta-2Theta
          scan range          =    4.000 -   65.000
          scan mode           = Continuous Scan
          scan speed          =   2.0000 (deg/min)
          sampling pitch      =   0.0200 (deg)
          preset time         =   0.60 (sec)

# Data      [ Total No. = 3051 ]
  <2Theta>   <   I   >
     4.0000       178
     4.0600       220
     4.1200       180
     4.1800       194
     4.2400       216
     4.3000       200
     4.3600       178
     4.4200       166
     4.4800       178
     4.5400       186
     4.6000       174
     4.6600       146
     4.7200       170
     4.7800       168
     4.8400       170
     4.9000       174
     4.9600       158
     5.0200       142
     5.0800       174
     5.1400       168
     5.2000       152
     5.2600       182
     5.3200       170
     5.3800       172
     5.4400       170
     5.5000       142
     5.5600       160
     5.6200       160
     5.6800       160
     5.7400       170
     5.8000       144
     5.8600       138
     5.9200       150
     5.9800       164
     6.0400       164
     6.1000       148
     6.1600       142
     6.2200       152
     6.2800       146
     6.3400       152
     6.4000       148
     6.4600       154
     6.5200       138
     6.5800       126
     6.6400       142
     6.7000       136
     6.7600       120
     6.8200       156
     6.8800       116
     6.9400       152
     7.0000       126
     7.0600       120
     7.1200       116
     7.1800       130
     7.2400       118
     7.3000       120
     7.3600       130
     7.4200       114
     7.4800       148
     7.5400       132
     7.6000       138
     7.6600       134
     7.7200       130
     7.7800       136
     7.8400       164
     7.9000       190
     7.9600       190
     8.0200       182
     8.0800       198
     8.1400       206
     8.2000       294
     8.2600       328
     8.3200       464
     8.3800       728
     8.4400       930
     8.5000      1314
     8.5600      2120
     8.6200      3492
     8.6800      8262
     8.7400     16798
     8.8000      7082
     8.8600      1262
     8.9200       536
     8.9800       450
     9.0400       274
     9.1000       166
     9.1600       122
     9.2200       140
     9.2800       138
     9.3400        98
     9.4000       122
     9.4600       116
     9.5200       118
     9.5800       132
     9.6400       106
     9.7000       102
     9.7600        92
     9.8200       104
     9.8800       102
     9.9400       118
    10.0000       100
    10.0600       122
    10.1200       108
    10.1800       128
    10.2400       102
    10.3000       118
    10.3600       108
    10.4200        98
    10.4800        86
    10.5400        96
    10.6000       110
    10.6600       112
    10.7200       104
    10.7800        90
    10.8400        82
    10.9000        90
    10.9600        86
    11.0200        84
    11.0800        80
    11.1400        76
    11.2000        68
    11.2600        94
    11.3200        74
    11.3800        90
    11.4400        80
    11.5000        98
    11.5600        76
    11.6200        80
    11.6800        90
    11.7400       116
    11.8000        76
    11.8600        74
    11.9200        60
    11.9800        70
    12.0400        82
    12.1000        60
    12.1600        86
    12.2200        72
    12.2800        80
    12.3400        84
    12.4000        88
    12.4600        78
    12.5200        82
    12.5800        78
    12.6400        78
    12.7000        66
    12.7600        78
    12.8200        80
    12.8800        74
    12.9400        90
    13.0000        74
    13.0600        84
    13.1200        68
    13.1800        70
    13.2400        82
    13.3000        68
    13.3600        78
    13.4200        82
    13.4800        66
    13.5400        74
    13.6000        74
    13.6600        76
    13.7200        66
    13.7800        58
    13.8400        60
    13.9000        60
    13.9600        78
    14.0200        62
    14.0800        58
    14.1400        72
    14.2000        52
    14.2600        72
    14.3200        62
    14.3800        54
    14.4400        64
    14.5000        54
    14.5600        68
    14.6200        70
    14.6800        70
    14.7400        54
    14.8000        60
    14.8600        44
    14.9200        46
    14.9800        64
    15.0400        64
    15.1000        60
    15.1600        58
    15.2200        76
    15.2800        62
    15.3400        62
    15.4000        58
    15.4600        70
    15.5200        64
    15.5800        62
    15.6400        54
    15.7000        52
    15.7600        66
    15.8200        50
    15.8800        64
    15.9400        60
    16.0000        44
    16.0600        62
    16.1200        54
    16.1800        54
    16.2400        58
    16.3000        64
    16.3600        74
    16.4200        70
    16.4800        60
    16.5400        54
    16.6000        58
    16.6600        78
    16.7200        64
    16.7800        64
    16.8400        80
    16.9000        60
    16.9600        68
    17.0200        66
    17.0800        72
    17.1400        80
    17.2000       108
    17.2600       118
    17.3200       170
    17.3800       212
    17.4400       384
    17.5000       748
    17.5600      1582
    17.6200      1328
    17.6800       396
    17.7400       134
    17.8000        94
    17.8600        84
    17.9200        78
    17.9800        64
    18.0400        58
    18.1000        46
    18.1600        62
    18.2200        66
    18.2800        62
    18.3400        50
    18.4000        44
    18.4600        46
    18.5200        40
    18.5800        56
    18.6400        40
    18.7000        42
    18.7600        58
    18.8200        58
    18.8800        80
    18.9400        44
    19.0000        52
    19.0600        60
    19.1200        60
    19.1800        74
    19.2400        64
    19.3000        56
    19.3600        62
    19.4200        64
    19.4800        44
    19.5400        54
    19.6000        50
    19.6600        60
    19.7200        54
    19.7800        46
    19.8400        50
    19.9000        60
    19.9600        62
    20.0200        44
    20.0800        44
    20.1400        54
    20.2000        50
    20.2600        44
    20.3200        46
    20.3800        60
    20.4400        54
    20.5000        46
    20.5600        58
    20.6200        58
    20.6800        50
    20.7400        40
    20.8000        40
    20.8600        44
    20.9200        56
    20.9800        46
    21.0400        56
    21.1000        48
    21.1600        62
    21.2200        52
    21.2800        46
    21.3400        34
    21.4000        32
    21.4600        58
    21.5200        42
    21.5800        58
    21.6400        46
    21.7000        44
    21.7600        56
    21.8200        48
    21.8800        52
    21.9400        44
    22.0000        56
    22.0600        34
    22.1200        62
    22.1800        42
    22.2400        56
    22.3000        58
    22.3600        60
    22.4200        56
    22.4800        50
    22.5400        46
    22.6000        54
    22.6600        54
    22.7200        52
    22.7800        42
    22.8400        46
    22.9000        36
    22.9600        50
    23.0200        56
    23.0800        42
    23.1400        64
    23.2000        44
    23.2600        64
    23.3200        42
    23.3800        58
    23.4400        40
    23.5000        56
    23.5600        48
    23.6200        64
    23.6800        72
    23.7400        48
    23.8000        62
    23.8600        84
    23.9200       118
    23.9800        82
    24.0400        64
    24.1000        52
    24.1600        52
    24.2200        54
    24.2800        44
    24.3400        58
    24.4000        70
    24.4600        64
    24.5200        68
    24.5800        64
    24.6400        52
    24.7000        58
    24.7600        60
    24.8200        68
    24.8800        80
    24.9400        56
    25.0000        62
    25.0600        74
    25.1200        70
    25.1800        70
    25.2400        84
    25.3000        98
    25.3600       120
    25.4200        98
    25.4800       112
    25.5400       118
    25.6000       118
    25.6600       108
    25.7200       126
    25.7800       140
    25.8400       134
    25.9000       160
    25.9600       184
    26.0200       194
    26.0800       262
    26.1400       324
    26.2000       566
    26.2600       736
    26.3200      1320
    26.3800      2650
    26.4400      6556
    26.5000     13516
    26.5600     13480
    26.6200      6564
    26.6800      1648
    26.7400       642
    26.8000       390
    26.8600       256
    26.9200       156
    26.9800       132
    27.0400       120
    27.1000       128
    27.1600       104
    27.2200        84
    27.2800        76
    27.3400        80
    27.4000        84
    27.4600        76
    27.5200        84
    27.5800        70
    27.6400        80
    27.7000        72
    27.7600        66
    27.8200        68
    27.8800        64
    27.9400        64
    28.0000        54
    28.0600        68
    28.1200        66
    28.1800        70
    28.2400        80
    28.3000        76
    28.3600        70
    28.4200        74
    28.4800        48
    28.5400        38
    28.6000        60
    28.6600        48
    28.7200        62
    28.7800        48
    28.8400        46
    28.9000        50
    28.9600        40
    29.0200        50
    29.0800        44
    29.1400        64
    29.2000        48
    29.2600        56
    29.3200        48
    29.3800        48
    29.4400        44
    29.5000        50
    29.5600        40
    29.6200        48
    29.6800        48
    29.7400        44
    29.8000        56
    29.8600        42
    29.9200        46
    29.9800        54
    30.0400        46
    30.1000        72
    30.1600        68
    30.2200        64
    30.2800        60
    30.3400        48
    30.4000        68
    30.4600        50
    30.5200        48
    30.5800        38
    30.6400        54
    30.7000        42
    30.7600        48
    30.8200        48
    30.8800        46
    30.9400        50
    31.0000        46
    31.0600        38
    31.1200        44
    31.1800        34
    31.2400        38
    31.3000        38
    31.3600        38
    31.4200        40
    31.4800        46
    31.5400        52
    31.6000        50
    31.6600        48
    31.7200        50
    31.7800        54
    31.8400        44
    31.9000        32
    31.9600        54
    32.0200        30
    32.0800        48
    32.1400        50
    32.2000        60
    32.2600        50
    32.3200        44
    32.3800        40
    32.4400        38
    32.5000        48
    32.5600        54
    32.6200        50
    32.6800        38
    32.7400        44
    32.8000        52
    32.8600        44
    32.9200        38
    32.9800        58
    33.0400        48
    33.1000        50
    33.1600        48
    33.2200        58
    33.2800        44
    33.3400        56
    33.4000        52
    33.4600        66
    33.5200        60
    33.5800        78
    33.6400        86
    33.7000       118
    33.7600       114
    33.8200       108
    33.8800        92
    33.9400        78
    34.0000        64
    34.0600        68
    34.1200        52
    34.1800        48
    34.2400        62
    34.3000        54
    34.3600        50
    34.4200        50
    34.4800        54
    34.5400        48
    34.6000        48
    34.6600        56
    34.7200        48
    34.7800        60
    34.8400        50
    34.9000        52
    34.9600        62
    35.0200        50
    35.0800        56
    35.1400        68
    35.2000        80
    35.2600       108
    35.3200       110
    35.3800       152
    35.4400       220
    35.5000       462
    35.5600      1072
    35.6200      2364
    35.6800      2406
    35.7400      1538
    35.8000       624
    35.8600       198
    35.9200       144
    35.9800        98
    36.0400        66
    36.1000        58
    36.1600        74
    36.2200        74
    36.2800        66
    36.3400        90
    36.4000        86
    36.4600        82
    36.5200        88
    36.5800        86
    36.6400        62
    36.7000        60
    36.7600        54
    36.8200        66
    36.8800        46
    36.9400        46
    37.0000        50
    37.0600        44
    37.1200        42
    37.1800        40
    37.2400        46
    37.3000        40
    37.3600        34
    37.4200        36
    37.4800        36
    37.5400        30
    37.6000        44
    37.6600        34
    37.7200        28
    37.7800        32
    37.8400        38
    37.9000        28
    37.9600        20
    38.0200        40
    38.0800        30
    38.1400        24
    38.2000        34
    38.2600        30
    38.3200        40
    38.3800        38
    38.4400        40
    38.5000        38
    38.5600        32
    38.6200        34
    38.6800        38
    38.7400        36
    38.8000        34
    38.8600        34
    38.9200        28
    38.9800        36
    39.0400        32
    39.1000        42
    39.1600        44
    39.2200        48
    39.2800        52
    39.3400        36
    39.4000        42
    39.4600        40
    39.5200        48
    39.5800        42
    39.6400        36
    39.7000        40
    39.7600        46
    39.8200        36
    39.8800        38
    39.9400        26
    40.0000        24
    40.0600        42
    40.1200        30
    40.1800        24
    40.2400        36
    40.3000        42
    40.3600        40
    40.4200        30
    40.4800        46
    40.5400        40
    40.6000        48
    40.6600        46
    40.7200        48
    40.7800        46
    40.8400        50
    40.9000        60
    40.9600        48
    41.0200        50
    41.0800        62
    41.1400        62
    41.2000        56
    41.2600        58
    41.3200        58
    41.3800        48
    41.4400        46
    41.5000        50
    41.5600        46
    41.6200        28
    41.6800        48
    41.7400        26
    41.8000        26
    41.8600        26
    41.9200        26
    41.9800        32
    42.0400        28
    42.1000        40
    42.1600        30
    42.2200        30
    42.2800        32
    42.3400        38
    42.4000        22
    42.4600        32
    42.5200        26
    42.5800        32
    42.6400        32
    42.7000        26
    42.7600        34
    42.8200        42
    42.8800        30
    42.9400        34
    43.0000        30
    43.0600        46
    43.1200        32
    43.1800        30
    43.2400        32
    43.3000        30
    43.3600        38
    43.4200        32
    43.4800        34
    43.5400        38
    43.6000        30
    43.6600        42
    43.7200        32
    43.7800        30
    43.8400        26
    43.9000        28
    43.9600        28
    44.0200        30
    44.0800        36
    44.1400        38
    44.2000        46
    44.2600        40
    44.3200        38
    44.3800        34
    44.4400        38
    44.5000        50
    44.5600        46
    44.6200        52
    44.6800        76
    44.7400        72
    44.8000       116
    44.8600       166
    44.9200       366
    44.9800       762
    45.0400       760
    45.1000       532
    45.1600       418
    45.2200       150
    45.2800        94
    45.3400        66
    45.4000        80
    45.4600        44
    45.5200        42
    45.5800        50
    45.6400        42
    45.7000        26
    45.7600        40
    45.8200        30
    45.8800        28
    45.9400        40
    46.0000        30
    46.0600        34
    46.1200        30
    46.1800        26
    46.2400        26
    46.3000        38
    46.3600        34
    46.4200        22
    46.4800        34
    46.5400        34
    46.6000        42
    46.6600        34
    46.7200        36
    46.7800        34
    46.8400        28
    46.9000        38
    46.9600        36
    47.0200        48
    47.0800        42
    47.1400        42
    47.2000        48
    47.2600        30
    47.3200        34
    47.3800        28
    47.4400        44
    47.5000        36
    47.5600        30
    47.6200        26
    47.6800        42
    47.7400        40
    47.8000        38
    47.8600        24
    47.9200        38
    47.9800        34
    48.0400        24
    48.1000        26
    48.1600        32
    48.2200        20
    48.2800        30
    48.3400        34
    48.4000        34
    48.4600        30
    48.5200        34
    48.5800        44
    48.6400        30
    48.7000        32
    48.7600        30
    48.8200        30
    48.8800        38
    48.9400        26
    49.0000        36
    49.0600        30
    49.1200        30
    49.1800        24
    49.2400        20
    49.3000        36
    49.3600        24
    49.4200        18
    49.4800        36
    49.5400        26
    49.6000        42
    49.6600        44
    49.7200        22
    49.7800        36
    49.8400        30
    49.9000        30
    49.9600        34
    50.0200        26
    50.0800        26
    50.1400        32
    50.2000        26
    50.2600        36
    50.3200        28
    50.3800        36
    50.4400        32
    50.5000        36
    50.5600        30
    50.6200        24
    50.6800        28
    50.7400        32
    50.8000        28
    50.8600        40
    50.9200        36
    50.9800        22
    51.0400        32
    51.1000        36
    51.1600        20
    51.2200        26
    51.2800        34
    51.3400        36
    51.4000        30
    51.4600        36
    51.5200        24
    51.5800        32
    51.6400        24
    51.7000        38
    51.7600        28
    51.8200        28
    51.8800        28
    51.9400        22
    52.0000        36
    52.0600        34
    52.1200        38
    52.1800        30
    52.2400        44
    52.3000        32
    52.3600        42
    52.4200        22
    52.4800        30
    52.5400        44
    52.6000        34
    52.6600        42
    52.7200        28
    52.7800        30
    52.8400        36
    52.9000        36
    52.9600        34
    53.0200        28
    53.0800        28
    53.1400        40
    53.2000        34
    53.2600        38
    53.3200        38
    53.3800        32
    53.4400        34
    53.5000        24
    53.5600        30
    53.6200        54
    53.6800        44
    53.7400        38
    53.8000        46
    53.8600        38
    53.9200        42
    53.9800        58
    54.0400        46
    54.1000        64
    54.1600        60
    54.2200        58
    54.2800        76
    54.3400        86
    54.4000        86
    54.4600       108
    54.5200       120
    54.5800       226
    54.6400       476
    54.7000       780
    54.7600       610
    54.8200       466
    54.8800       388
    54.9400       196
    55.0000       102
    55.0600        76
    55.1200        56
    55.1800        58
    55.2400        52
    55.3000        40
    55.3600        48
    55.4200        52
    55.4800        36
    55.5400        40
    55.6000        32
    55.6600        38
    55.7200        40
    55.7800        30
    55.8400        34
    55.9000        32
    55.9600        36
    56.0200        30
    56.0800        42
    56.1400        38
    56.2000        28
    56.2600        44
    56.3200        42
    56.3800        26
    56.4400        36
    56.5000        30
    56.5600        32
    56.6200        36
    56.6800        46
    56.7400        28
    56.8000        30
    56.8600        22
    56.9200        38
    56.9800        34
    57.0400        28
    57.1000        34
    57.1600        30
    57.2200        30
    57.2800        30
    57.3400        24
    57.4000        42
    57.4600        32
    57.5200        32
    57.5800        36
    57.6400        24
    57.7000        34
    57.7600        34
    57.8200        36
    57.8800        38
    57.9400        26
    58.0000        38
    58.0600        36
    58.1200        34
    58.1800        32
    58.2400        28
    58.3000        24
    58.3600        24
    58.4200        20
    58.4800        34
    58.5400        24
    58.6000        34
    58.6600        32
    58.7200        38
    58.7800        24
    58.8400        28
    58.9000        44
    58.9600        38
    59.0200        50
    59.0800        38
    59.1400        38
    59.2000        60
    59.2600        52
    59.3200        64
    59.3800        70
    59.4400        68
    59.5000        72
    59.5600        60
    59.6200        76
    59.6800        64
    59.7400        58
    59.8000        86
    59.8600        56
    59.9200        66
    59.9800        76
    60.0400        60
    60.1000        60
    60.1600        48
    60.2200        52
    60.2800        56
    60.3400        52
    60.4000        52
    60.4600        48
    60.5200        44
    60.5800        42
    60.6400        38
    60.7000        42
    60.7600        52
    60.8200        38
    60.8800        40
    60.9400        38
    61.0000        36
    61.0600        42
    61.1200        44
    61.1800        26
    61.2400        30
    61.3000        30
    61.3600        44
    61.4200        32
    61.4800        30
    61.5400        22
    61.6000        38
    61.6600        40
    61.7200        32
    61.7800        44
    61.8400        36
    61.9000        32
    61.9600        42
    62.0200        46
    62.0800        26
    62.1400        44
    62.2000        44
    62.2600        42
    62.3200        38
    62.3800        36
    62.4400        42
    62.5000        52
    62.5600        40
    62.6200        48
    62.6800        44
    62.7400        34
    62.8000        32
    62.8600        48
    62.9200        44
    62.9800        38
    63.0400        34
    63.1000        46
    63.1600        30
    63.2200        30
    63.2800        38
    63.3400        42
    63.4000        34
    63.4600        32
    63.5200        32
    63.5800        30
    63.6400        34
    63.7000        24
    63.7600        36
    63.8200        40
    63.8800        32
    63.9400        30
    64.0000        18
    64.0600        48
    64.1200        30
    64.1800        32
    64.2400        34
    64.3000        36
    64.3600        46
    64.4200        42
    64.4800        46
    64.5400        62
    64.6000        88
    64.6600        98
    64.7200       160
    64.7800       378
    64.8400       632
    64.9000       486
    64.9600       316
    65.0000       382