File: sl1/usgs/library06/DESCRIPT/new_xrd_results_to_be_added/Rhonda_Driscoll_xrd_runs/WS708-Bytownite-Hoefen.txt
/////////////////////////////////////////////////////////////////////////////////
/// Profile Data Ascii Dump (XRD)                                             ///
/////////////////////////////////////////////////////////////////////////////////

  Group     : GPlumlee
  Data      : WS708
  File Name : WS708.RAW

# Profile Datafile
          comment             = Bytownite-Hoefen
          date & time         = 08-04-16 08:15:19

# Measurement Condition
    X-ray tube
          target              = Cu
          voltage             = 40.0 (kV)
          current             = 30.0 (mA)
    Slits
          divergence slit     = 2.00000 (deg)
          scatter slit        = 2.00000 (deg)
          receiving slit      = 0.15000 (mm)
    Scanning
          drive axis          = Theta-2Theta
          scan range          =    4.000 -   65.000
          scan mode           = Continuous Scan
          scan speed          =   2.0000 (deg/min)
          sampling pitch      =   0.0200 (deg)
          preset time         =   0.60 (sec)

# Data      [ Total No. = 3051 ]
  <2Theta>   <   I   >
     4.0000       190
     4.0600       198
     4.1200       174
     4.1800       194
     4.2400       178
     4.3000       186
     4.3600       168
     4.4200       158
     4.4800       142
     4.5400       166
     4.6000       158
     4.6600       160
     4.7200       142
     4.7800       154
     4.8400       146
     4.9000       130
     4.9600       160
     5.0200       158
     5.0800       160
     5.1400       144
     5.2000       150
     5.2600       178
     5.3200       168
     5.3800       148
     5.4400       128
     5.5000       152
     5.5600       162
     5.6200       164
     5.6800       160
     5.7400       168
     5.8000       162
     5.8600       158
     5.9200       132
     5.9800       144
     6.0400       132
     6.1000       140
     6.1600       138
     6.2200       130
     6.2800       144
     6.3400       134
     6.4000       130
     6.4600       158
     6.5200       140
     6.5800       140
     6.6400       120
     6.7000       120
     6.7600       114
     6.8200       140
     6.8800       142
     6.9400       114
     7.0000       126
     7.0600       116
     7.1200       110
     7.1800       110
     7.2400       120
     7.3000       108
     7.3600       110
     7.4200       104
     7.4800       124
     7.5400       110
     7.6000       124
     7.6600       118
     7.7200       122
     7.7800       120
     7.8400        92
     7.9000        92
     7.9600       118
     8.0200       120
     8.0800       114
     8.1400       128
     8.2000       112
     8.2600       102
     8.3200       110
     8.3800       126
     8.4400        92
     8.5000       106
     8.5600       100
     8.6200       122
     8.6800       112
     8.7400       108
     8.8000       118
     8.8600       100
     8.9200       102
     8.9800       108
     9.0400       104
     9.1000       106
     9.1600       108
     9.2200       108
     9.2800       122
     9.3400       138
     9.4000       114
     9.4600       114
     9.5200        98
     9.5800       112
     9.6400       110
     9.7000        84
     9.7600       114
     9.8200       116
     9.8800       106
     9.9400        86
    10.0000       104
    10.0600       100
    10.1200       108
    10.1800        96
    10.2400        92
    10.3000       106
    10.3600       100
    10.4200        86
    10.4800        92
    10.5400       102
    10.6000       102
    10.6600        96
    10.7200        86
    10.7800       102
    10.8400        98
    10.9000        74
    10.9600        86
    11.0200        76
    11.0800        98
    11.1400        80
    11.2000        90
    11.2600        90
    11.3200        76
    11.3800        84
    11.4400        72
    11.5000        78
    11.5600        66
    11.6200        70
    11.6800        86
    11.7400        92
    11.8000        90
    11.8600        88
    11.9200        74
    11.9800        74
    12.0400        94
    12.1000        78
    12.1600        84
    12.2200        92
    12.2800        70
    12.3400        84
    12.4000        68
    12.4600        64
    12.5200        80
    12.5800        68
    12.6400        98
    12.7000        60
    12.7600        70
    12.8200        72
    12.8800        82
    12.9400        72
    13.0000        84
    13.0600        80
    13.1200        56
    13.1800        70
    13.2400        74
    13.3000        56
    13.3600        82
    13.4200        74
    13.4800       102
    13.5400        96
    13.6000       120
    13.6600        86
    13.7200        70
    13.7800        64
    13.8400        70
    13.9000        68
    13.9600        74
    14.0200        68
    14.0800        58
    14.1400        68
    14.2000        64
    14.2600        82
    14.3200        66
    14.3800        78
    14.4400        48
    14.5000        68
    14.5600        56
    14.6200        54
    14.6800        70
    14.7400        54
    14.8000        64
    14.8600        56
    14.9200        72
    14.9800        64
    15.0400        54
    15.1000        60
    15.1600        64
    15.2200        70
    15.2800        64
    15.3400        70
    15.4000        62
    15.4600        50
    15.5200        70
    15.5800        54
    15.6400        68
    15.7000        48
    15.7600        64
    15.8200        70
    15.8800        52
    15.9400        64
    16.0000        52
    16.0600        56
    16.1200        72
    16.1800        62
    16.2400        52
    16.3000        34
    16.3600        54
    16.4200        54
    16.4800        66
    16.5400        48
    16.6000        48
    16.6600        56
    16.7200        50
    16.7800        48
    16.8400        76
    16.9000        52
    16.9600        48
    17.0200        42
    17.0800        42
    17.1400        52
    17.2000        60
    17.2600        56
    17.3200        58
    17.3800        46
    17.4400        54
    17.5000        54
    17.5600        48
    17.6200        46
    17.6800        64
    17.7400        60
    17.8000        60
    17.8600        58
    17.9200        72
    17.9800        60
    18.0400        50
    18.1000        50
    18.1600        68
    18.2200        40
    18.2800        58
    18.3400        60
    18.4000        56
    18.4600        66
    18.5200        56
    18.5800        42
    18.6400        64
    18.7000        82
    18.7600       104
    18.8200       148
    18.8800        78
    18.9400        60
    19.0000        52
    19.0600        58
    19.1200        60
    19.1800        42
    19.2400        46
    19.3000        66
    19.3600        54
    19.4200        52
    19.4800        52
    19.5400        60
    19.6000        50
    19.6600        48
    19.7200        48
    19.7800        66
    19.8400        54
    19.9000        46
    19.9600        54
    20.0200        60
    20.0800        44
    20.1400        56
    20.2000        34
    20.2600        52
    20.3200        42
    20.3800        48
    20.4400        54
    20.5000        42
    20.5600        60
    20.6200        52
    20.6800        46
    20.7400        52
    20.8000        62
    20.8600        58
    20.9200        48
    20.9800        54
    21.0400        68
    21.1000        56
    21.1600        44
    21.2200        50
    21.2800        66
    21.3400        64
    21.4000        70
    21.4600        56
    21.5200        66
    21.5800        68
    21.6400       108
    21.7000       134
    21.7600       224
    21.8200       408
    21.8800       394
    21.9400       224
    22.0000       114
    22.0600        62
    22.1200        66
    22.1800        62
    22.2400        54
    22.3000        60
    22.3600        62
    22.4200        62
    22.4800        72
    22.5400       136
    22.6000       168
    22.6600       194
    22.7200       136
    22.7800        74
    22.8400        46
    22.9000        52
    22.9600        48
    23.0200        64
    23.0800        62
    23.1400        82
    23.2000        66
    23.2600        92
    23.3200       122
    23.3800       186
    23.4400       380
    23.5000       718
    23.5600       638
    23.6200       294
    23.6800       110
    23.7400        50
    23.8000        46
    23.8600        74
    23.9200        74
    23.9800        66
    24.0400        84
    24.1000        78
    24.1600       124
    24.2200       168
    24.2800       302
    24.3400       378
    24.4000       312
    24.4600       244
    24.5200       128
    24.5800        80
    24.6400        54
    24.7000        44
    24.7600        50
    24.8200        58
    24.8800        64
    24.9400        48
    25.0000        44
    25.0600        68
    25.1200        64
    25.1800        58
    25.2400        70
    25.3000       114
    25.3600        88
    25.4200       108
    25.4800       166
    25.5400       186
    25.6000       122
    25.6600        88
    25.7200        62
    25.7800        68
    25.8400        90
    25.9000        84
    25.9600        78
    26.0200        82
    26.0800        70
    26.1400        76
    26.2000        92
    26.2600       184
    26.3200       302
    26.3800       266
    26.4400       162
    26.5000       100
    26.5600        70
    26.6200        62
    26.6800        74
    26.7400        74
    26.8000        58
    26.8600        66
    26.9200        54
    26.9800        82
    27.0400        84
    27.1000        96
    27.1600       136
    27.2200       184
    27.2800       244
    27.3400       476
    27.4000       646
    27.4600       552
    27.5200       514
    27.5800       862
    27.6400      1426
    27.7000      1514
    27.7600      1446
    27.8200      1808
    27.8800      2650
    27.9400      3206
    28.0000      1722
    28.0600       470
    28.1200       178
    28.1800       210
    28.2400       218
    28.3000       302
    28.3600       362
    28.4200       212
    28.4800       130
    28.5400        54
    28.6000        90
    28.6600        72
    28.7200        48
    28.7800        58
    28.8400        42
    28.9000        54
    28.9600        46
    29.0200        60
    29.0800        66
    29.1400        70
    29.2000        92
    29.2600       158
    29.3200       244
    29.3800       296
    29.4400       208
    29.5000        84
    29.5600        68
    29.6200        66
    29.6800        52
    29.7400        42
    29.8000        58
    29.8600        66
    29.9200       106
    29.9800       130
    30.0400       186
    30.1000       300
    30.1600       366
    30.2200       288
    30.2800       298
    30.3400       288
    30.4000       208
    30.4600       122
    30.5200       106
    30.5800       136
    30.6400        94
    30.7000        66
    30.7600        48
    30.8200        34
    30.8800        50
    30.9400        38
    31.0000        46
    31.0600        44
    31.1200        56
    31.1800        62
    31.2400        86
    31.3000       158
    31.3600       238
    31.4200       268
    31.4800       242
    31.5400       118
    31.6000       132
    31.6600       120
    31.7200        96
    31.7800        62
    31.8400        44
    31.9000        56
    31.9600        54
    32.0200        42
    32.0800        40
    32.1400        38
    32.2000        38
    32.2600        40
    32.3200        30
    32.3800        42
    32.4400        48
    32.5000        34
    32.5600        38
    32.6200        34
    32.6800        42
    32.7400        38
    32.8000        50
    32.8600        34
    32.9200        34
    32.9800        42
    33.0400        30
    33.1000        34
    33.1600        50
    33.2200        46
    33.2800        36
    33.3400        48
    33.4000        48
    33.4600        82
    33.5200        86
    33.5800       134
    33.6400       228
    33.7000       210
    33.7600       124
    33.8200        54
    33.8800        50
    33.9400        36
    34.0000        44
    34.0600        46
    34.1200        36
    34.1800        34
    34.2400        28
    34.3000        36
    34.3600        36
    34.4200        46
    34.4800        40
    34.5400        54
    34.6000        32
    34.6600        38
    34.7200        36
    34.7800        30
    34.8400        48
    34.9000        40
    34.9600        76
    35.0200        64
    35.0800        82
    35.1400        72
    35.2000        62
    35.2600       102
    35.3200        96
    35.3800       162
    35.4400       224
    35.5000       340
    35.5600       386
    35.6200       340
    35.6800       180
    35.7400       102
    35.8000        54
    35.8600        56
    35.9200        38
    35.9800        46
    36.0400        30
    36.1000        30
    36.1600        50
    36.2200        52
    36.2800        44
    36.3400        58
    36.4000        76
    36.4600        72
    36.5200        52
    36.5800        64
    36.6400        82
    36.7000        50
    36.7600        70
    36.8200        40
    36.8800        58
    36.9400        66
    37.0000        58
    37.0600        94
    37.1200        60
    37.1800        64
    37.2400        40
    37.3000        46
    37.3600        48
    37.4200        56
    37.4800        62
    37.5400        64
    37.6000        54
    37.6600        68
    37.7200        56
    37.7800        64
    37.8400        86
    37.9000        64
    37.9600        44
    38.0200        44
    38.0800        86
    38.1400        74
    38.2000        52
    38.2600        52
    38.3200        38
    38.3800        52
    38.4400        38
    38.5000        42
    38.5600        42
    38.6200        46
    38.6800        54
    38.7400        58
    38.8000        92
    38.8600        72
    38.9200        72
    38.9800        44
    39.0400        46
    39.1000        36
    39.1600        34
    39.2200        54
    39.2800        66
    39.3400       100
    39.4000        88
    39.4600        78
    39.5200        54
    39.5800        70
    39.6400        84
    39.7000        82
    39.7600        58
    39.8200        54
    39.8800        42
    39.9400        36
    40.0000        38
    40.0600        32
    40.1200        40
    40.1800        50
    40.2400        82
    40.3000        80
    40.3600        80
    40.4200        90
    40.4800        50
    40.5400        46
    40.6000        38
    40.6600        30
    40.7200        40
    40.7800        36
    40.8400        36
    40.9000        34
    40.9600        34
    41.0200        30
    41.0800        50
    41.1400        60
    41.2000        64
    41.2600        58
    41.3200        68
    41.3800        46
    41.4400        44
    41.5000        32
    41.5600        36
    41.6200        56
    41.6800        54
    41.7400        66
    41.8000        70
    41.8600        56
    41.9200        76
    41.9800       116
    42.0400       182
    42.1000       242
    42.1600       208
    42.2200       248
    42.2800       150
    42.3400       136
    42.4000        98
    42.4600        86
    42.5200        84
    42.5800        70
    42.6400        50
    42.7000        66
    42.7600        58
    42.8200        90
    42.8800       150
    42.9400       138
    43.0000       112
    43.0600       104
    43.1200        56
    43.1800        66
    43.2400        74
    43.3000        66
    43.3600        44
    43.4200        54
    43.4800        48
    43.5400        26
    43.6000        38
    43.6600        34
    43.7200        44
    43.7800        40
    43.8400        34
    43.9000        28
    43.9600        32
    44.0200        42
    44.0800        28
    44.1400        36
    44.2000        32
    44.2600        38
    44.3200        40
    44.3800        34
    44.4400        52
    44.5000        38
    44.5600        58
    44.6200        66
    44.6800        62
    44.7400        76
    44.8000        78
    44.8600        74
    44.9200        70
    44.9800        58
    45.0400        80
    45.1000        56
    45.1600        54
    45.2200        48
    45.2800        56
    45.3400        64
    45.4000        84
    45.4600       100
    45.5200       138
    45.5800       106
    45.6400        80
    45.7000        82
    45.7600        52
    45.8200        48
    45.8800        60
    45.9400        52
    46.0000        50
    46.0600        46
    46.1200        28
    46.1800        34
    46.2400        52
    46.3000        52
    46.3600        68
    46.4200        56
    46.4800        48
    46.5400        34
    46.6000        38
    46.6600        58
    46.7200        50
    46.7800        40
    46.8400        40
    46.9000        56
    46.9600        76
    47.0200       116
    47.0800       102
    47.1400        82
    47.2000        60
    47.2600        38
    47.3200        40
    47.3800        42
    47.4400        30
    47.5000        36
    47.5600        38
    47.6200        36
    47.6800        36
    47.7400        30
    47.8000        38
    47.8600        52
    47.9200        48
    47.9800        44
    48.0400        46
    48.1000        62
    48.1600       102
    48.2200       164
    48.2800       176
    48.3400       128
    48.4000        78
    48.4600        46
    48.5200        50
    48.5800        38
    48.6400        38
    48.7000        38
    48.7600        32
    48.8200        38
    48.8800        56
    48.9400        76
    49.0000        54
    49.0600        78
    49.1200       112
    49.1800       176
    49.2400       128
    49.3000       114
    49.3600       114
    49.4200       118
    49.4800       230
    49.5400       220
    49.6000       152
    49.6600       130
    49.7200       100
    49.7800        58
    49.8400        56
    49.9000        64
    49.9600        60
    50.0200       116
    50.0800        66
    50.1400        80
    50.2000        90
    50.2600        76
    50.3200        50
    50.3800        70
    50.4400        46
    50.5000        84
    50.5600       142
    50.6200       242
    50.6800       178
    50.7400       150
    50.8000       116
    50.8600        72
    50.9200        62
    50.9800        52
    51.0400        58
    51.1000        86
    51.1600        86
    51.2200        74
    51.2800        80
    51.3400       144
    51.4000       280
    51.4600       194
    51.5200       152
    51.5800       120
    51.6400        58
    51.7000        58
    51.7600        62
    51.8200        42
    51.8800        66
    51.9400        90
    52.0000       100
    52.0600        66
    52.1200       104
    52.1800       108
    52.2400       102
    52.3000        74
    52.3600        68
    52.4200        72
    52.4800        74
    52.5400        60
    52.6000        80
    52.6600        74
    52.7200        82
    52.7800        62
    52.8400        74
    52.9000        64
    52.9600        78
    53.0200        82
    53.0800        76
    53.1400        64
    53.2000        98
    53.2600        76
    53.3200        98
    53.3800       116
    53.4400        72
    53.5000        86
    53.5600        72
    53.6200        38
    53.6800        36
    53.7400        26
    53.8000        46
    53.8600        30
    53.9200        28
    53.9800        40
    54.0400        44
    54.1000        70
    54.1600        58
    54.2200        46
    54.2800        80
    54.3400        74
    54.4000        72
    54.4600        38
    54.5200        48
    54.5800        42
    54.6400        44
    54.7000        46
    54.7600        40
    54.8200        56
    54.8800        30
    54.9400        34
    55.0000        56
    55.0600        36
    55.1200        30
    55.1800        26
    55.2400        34
    55.3000        40
    55.3600        62
    55.4200        60
    55.4800        62
    55.5400        50
    55.6000        56
    55.6600        40
    55.7200        36
    55.7800        42
    55.8400        40
    55.9000        40
    55.9600        30
    56.0200        36
    56.0800        54
    56.1400        42
    56.2000        46
    56.2600        52
    56.3200        60
    56.3800        48
    56.4400        44
    56.5000        46
    56.5600        42
    56.6200        32
    56.6800        42
    56.7400        42
    56.8000        38
    56.8600        40
    56.9200        58
    56.9800        86
    57.0400        54
    57.1000        62
    57.1600        52
    57.2200        72
    57.2800        82
    57.3400        60
    57.4000        66
    57.4600        78
    57.5200        54
    57.5800        36
    57.6400        28
    57.7000        42
    57.7600        48
    57.8200        52
    57.8800        50
    57.9400        66
    58.0000        64
    58.0600        72
    58.1200        62
    58.1800        60
    58.2400        52
    58.3000        52
    58.3600        38
    58.4200        36
    58.4800        48
    58.5400        72
    58.6000       124
    58.6600        90
    58.7200        66
    58.7800        88
    58.8400        54
    58.9000        56
    58.9600        48
    59.0200        52
    59.0800        56
    59.1400        42
    59.2000        36
    59.2600        44
    59.3200        40
    59.3800        42
    59.4400        44
    59.5000        46
    59.5600        38
    59.6200        38
    59.6800        48
    59.7400        56
    59.8000        72
    59.8600        94
    59.9200        94
    59.9800        80
    60.0400        74
    60.1000        58
    60.1600        36
    60.2200        34
    60.2800        42
    60.3400        44
    60.4000        34
    60.4600        44
    60.5200        38
    60.5800        40
    60.6400        34
    60.7000        36
    60.7600        60
    60.8200        60
    60.8800        48
    60.9400        62
    61.0000        78
    61.0600        76
    61.1200        58
    61.1800        40
    61.2400        44
    61.3000        42
    61.3600        44
    61.4200        30
    61.4800        58
    61.5400        32
    61.6000        28
    61.6600        42
    61.7200        52
    61.7800        34
    61.8400        66
    61.9000        72
    61.9600        90
    62.0200       168
    62.0800       112
    62.1400        98
    62.2000       114
    62.2600        72
    62.3200        60
    62.3800        68
    62.4400       102
    62.5000        94
    62.5600        98
    62.6200        94
    62.6800        80
    62.7400        92
    62.8000       104
    62.8600        68
    62.9200        56
    62.9800        74
    63.0400        64
    63.1000        54
    63.1600        74
    63.2200        74
    63.2800        46
    63.3400        56
    63.4000        48
    63.4600        52
    63.5200        46
    63.5800        44
    63.6400        52
    63.7000        74
    63.7600       130
    63.8200        80
    63.8800        62
    63.9400       100
    64.0000        98
    64.0600        82
    64.1200        54
    64.1800        54
    64.2400        68
    64.3000        78
    64.3600        60
    64.4200        44
    64.4800        60
    64.5400        50
    64.6000        46
    64.6600        46
    64.7200        46
    64.7800        36
    64.8400        44
    64.9000        42
    64.9600        48
    65.0000        52