File: sl1/usgs/library06/DESCRIPT/new_xrd_results_to_be_added/Rhonda_Driscoll_xrd_runs/WS738---Clinoptilolite.txt
/////////////////////////////////////////////////////////////////////////////////
/// Profile Data Ascii Dump (XRD)                                             ///
/////////////////////////////////////////////////////////////////////////////////

  Group     : Swayze
  Data      : WS738
  File Name : WS738.RAW

# Profile Datafile
          comment             = Clinoptilolite
          date & time         = 08-03-13 05:50:54

# Measurement Condition
    X-ray tube
          target              = Cu
          voltage             = 40.0 (kV)
          current             = 30.0 (mA)
    Slits
          divergence slit     = 2.00000 (deg)
          scatter slit        = 2.00000 (deg)
          receiving slit      = 0.15000 (mm)
    Scanning
          drive axis          = Theta-2Theta
          scan range          =    4.000 -   65.000
          scan mode           = Continuous Scan
          scan speed          =   2.0000 (deg/min)
          sampling pitch      =   0.0200 (deg)
          preset time         =   0.60 (sec)

# Data      [ Total No. = 3051 ]
  <2Theta>   <   I   >
     4.0000       238
     4.0600       212
     4.1200       214
     4.1800       192
     4.2400       216
     4.3000       186
     4.3600       172
     4.4200       228
     4.4800       218
     4.5400       172
     4.6000       172
     4.6600       170
     4.7200       176
     4.7800       174
     4.8400       176
     4.9000       172
     4.9600       180
     5.0200       178
     5.0800       186
     5.1400       164
     5.2000       208
     5.2600       186
     5.3200       178
     5.3800       178
     5.4400       184
     5.5000       166
     5.5600       192
     5.6200       154
     5.6800       200
     5.7400       170
     5.8000       202
     5.8600       190
     5.9200       198
     5.9800       180
     6.0400       150
     6.1000       148
     6.1600       176
     6.2200       172
     6.2800       160
     6.3400       158
     6.4000       164
     6.4600       138
     6.5200       164
     6.5800       154
     6.6400       150
     6.7000       126
     6.7600       142
     6.8200       150
     6.8800       146
     6.9400       166
     7.0000       144
     7.0600       144
     7.1200       126
     7.1800       136
     7.2400       150
     7.3000       138
     7.3600       160
     7.4200       136
     7.4800       130
     7.5400       150
     7.6000       130
     7.6600       122
     7.7200       162
     7.7800       122
     7.8400       140
     7.9000       132
     7.9600       124
     8.0200       116
     8.0800       148
     8.1400       122
     8.2000       132
     8.2600       102
     8.3200       148
     8.3800       144
     8.4400       144
     8.5000       142
     8.5600       138
     8.6200       140
     8.6800       124
     8.7400       146
     8.8000       142
     8.8600       104
     8.9200       148
     8.9800       140
     9.0400       122
     9.1000       124
     9.1600       140
     9.2200       144
     9.2800       154
     9.3400       130
     9.4000       188
     9.4600       212
     9.5200       246
     9.5800       298
     9.6400       334
     9.7000       430
     9.7600       606
     9.8200       684
     9.8800       442
     9.9400       232
    10.0000       146
    10.0600       140
    10.1200       152
    10.1800       108
    10.2400       122
    10.3000       114
    10.3600       118
    10.4200       118
    10.4800       126
    10.5400       134
    10.6000       108
    10.6600       144
    10.7200       144
    10.7800       152
    10.8400       180
    10.9000       208
    10.9600       238
    11.0200       346
    11.0800       452
    11.1400       394
    11.2000       184
    11.2600       128
    11.3200       124
    11.3800       102
    11.4400       126
    11.5000        90
    11.5600       104
    11.6200       102
    11.6800        98
    11.7400        92
    11.8000       106
    11.8600        68
    11.9200        94
    11.9800        90
    12.0400        74
    12.1000       106
    12.1600        98
    12.2200       102
    12.2800        88
    12.3400        80
    12.4000        86
    12.4600        94
    12.5200        76
    12.5800        98
    12.6400       120
    12.7000       112
    12.7600       108
    12.8200       138
    12.8800       184
    12.9400       178
    13.0000       158
    13.0600       152
    13.1200       106
    13.1800       104
    13.2400       112
    13.3000       116
    13.3600        72
    13.4200        74
    13.4800        76
    13.5400        86
    13.6000        76
    13.6600        76
    13.7200        74
    13.7800        78
    13.8400        84
    13.9000        66
    13.9600        74
    14.0200        74
    14.0800        66
    14.1400        56
    14.2000        72
    14.2600        76
    14.3200        88
    14.3800        66
    14.4400        74
    14.5000        80
    14.5600        82
    14.6200        76
    14.6800       102
    14.7400        82
    14.8000       124
    14.8600       140
    14.9200       130
    14.9800        96
    15.0400        68
    15.1000        84
    15.1600        66
    15.2200        72
    15.2800        84
    15.3400        76
    15.4000        88
    15.4600        80
    15.5200        74
    15.5800        64
    15.6400        66
    15.7000        76
    15.7600        88
    15.8200        72
    15.8800        86
    15.9400        78
    16.0000        70
    16.0600        84
    16.1200        54
    16.1800        80
    16.2400        66
    16.3000        74
    16.3600        82
    16.4200        78
    16.4800        86
    16.5400        92
    16.6000        84
    16.6600       104
    16.7200       118
    16.7800       150
    16.8400       190
    16.9000       134
    16.9600       126
    17.0200       140
    17.0800       138
    17.1400       216
    17.2000       328
    17.2600       372
    17.3200       266
    17.3800       138
    17.4400       118
    17.5000       128
    17.5600       106
    17.6200        82
    17.6800        84
    17.7400        68
    17.8000        66
    17.8600        70
    17.9200        66
    17.9800        56
    18.0400        78
    18.1000        72
    18.1600        80
    18.2200        48
    18.2800        78
    18.3400        78
    18.4000        78
    18.4600        66
    18.5200        82
    18.5800        76
    18.6400        68
    18.7000        92
    18.7600       126
    18.8200       122
    18.8800       130
    18.9400       184
    19.0000       248
    19.0600       192
    19.1200       172
    19.1800        86
    19.2400       102
    19.3000       104
    19.3600        94
    19.4200       104
    19.4800        90
    19.5400        98
    19.6000        98
    19.6600        82
    19.7200       102
    19.7800        94
    19.8400        98
    19.9000        98
    19.9600       102
    20.0200       114
    20.0800        96
    20.1400       104
    20.2000       164
    20.2600       158
    20.3200       192
    20.3800       178
    20.4400       120
    20.5000       138
    20.5600       140
    20.6200       120
    20.6800       116
    20.7400       108
    20.8000       118
    20.8600       134
    20.9200       128
    20.9800       118
    21.0400       134
    21.1000       122
    21.1600       154
    21.2200       148
    21.2800       134
    21.3400       146
    21.4000       194
    21.4600       194
    21.5200       210
    21.5800       238
    21.6400       214
    21.7000       232
    21.7600       256
    21.8200       224
    21.8800       222
    21.9400       258
    22.0000       216
    22.0600       320
    22.1200       402
    22.1800       616
    22.2400       798
    22.3000      1020
    22.3600       994
    22.4200       880
    22.4800       644
    22.5400       430
    22.6000       466
    22.6600       520
    22.7200       470
    22.7800       376
    22.8400       252
    22.9000       218
    22.9600       166
    23.0200       154
    23.0800       180
    23.1400       140
    23.2000       110
    23.2600        98
    23.3200        96
    23.3800        94
    23.4400       104
    23.5000        90
    23.5600        92
    23.6200        96
    23.6800       104
    23.7400       112
    23.8000       140
    23.8600       136
    23.9200       148
    23.9800       128
    24.0400       120
    24.1000        90
    24.1600       102
    24.2200        92
    24.2800       106
    24.3400        98
    24.4000        84
    24.4600        74
    24.5200        80
    24.5800        92
    24.6400        84
    24.7000        88
    24.7600       110
    24.8200       134
    24.8800       178
    24.9400       198
    25.0000       222
    25.0600       178
    25.1200       112
    25.1800       102
    25.2400       100
    25.3000       114
    25.3600       116
    25.4200       114
    25.4800       122
    25.5400       116
    25.6000       168
    25.6600       156
    25.7200       172
    25.7800       170
    25.8400       266
    25.9000       354
    25.9600       430
    26.0200       380
    26.0800       266
    26.1400       292
    26.2000       268
    26.2600       258
    26.3200       174
    26.3800       100
    26.4400       136
    26.5000        82
    26.5600       138
    26.6200       192
    26.6800       200
    26.7400       238
    26.8000       170
    26.8600       128
    26.9200       102
    26.9800        84
    27.0400       100
    27.1000        88
    27.1600        84
    27.2200        80
    27.2800        78
    27.3400        92
    27.4000        70
    27.4600        96
    27.5200        76
    27.5800        82
    27.6400       112
    27.7000        80
    27.7600       108
    27.8200       128
    27.8800       152
    27.9400       220
    28.0000       344
    28.0600       384
    28.1200       382
    28.1800       270
    28.2400       178
    28.3000       128
    28.3600       134
    28.4200       188
    28.4800       236
    28.5400       276
    28.6000       212
    28.6600       188
    28.7200       146
    28.7800       168
    28.8400       172
    28.9000       218
    28.9600       264
    29.0200       238
    29.0800       156
    29.1400       112
    29.2000        94
    29.2600       106
    29.3200       102
    29.3800       114
    29.4400       174
    29.5000       166
    29.5600       162
    29.6200       166
    29.6800       226
    29.7400       254
    29.8000       326
    29.8600       386
    29.9200       448
    29.9800       494
    30.0400       482
    30.1000       456
    30.1600       412
    30.2200       280
    30.2800       218
    30.3400       156
    30.4000       136
    30.4600        98
    30.5200        72
    30.5800        66
    30.6400        78
    30.7000        82
    30.7600        74
    30.8200        78
    30.8800        98
    30.9400        66
    31.0000        86
    31.0600        86
    31.1200        80
    31.1800        82
    31.2400        92
    31.3000        82
    31.3600        72
    31.4200        68
    31.4800       102
    31.5400        78
    31.6000       100
    31.6600       106
    31.7200       138
    31.7800       220
    31.8400       316
    31.9000       410
    31.9600       406
    32.0200       306
    32.0800       164
    32.1400       130
    32.2000       102
    32.2600       102
    32.3200        78
    32.3800        80
    32.4400        90
    32.5000       122
    32.5600       134
    32.6200       174
    32.6800       184
    32.7400       208
    32.8000       212
    32.8600       162
    32.9200       166
    32.9800       132
    33.0400        86
    33.1000        74
    33.1600        78
    33.2200        78
    33.2800        84
    33.3400       106
    33.4000        96
    33.4600       126
    33.5200       108
    33.5800        88
    33.6400        60
    33.7000        60
    33.7600        48
    33.8200        70
    33.8800        76
    33.9400        62
    34.0000        82
    34.0600        64
    34.1200        66
    34.1800        72
    34.2400        68
    34.3000        78
    34.3600        76
    34.4200        68
    34.4800        66
    34.5400        80
    34.6000        88
    34.6600        74
    34.7200        98
    34.7800        94
    34.8400        88
    34.9000       106
    34.9600       110
    35.0200       124
    35.0800       110
    35.1400       110
    35.2000       106
    35.2600       120
    35.3200       134
    35.3800       146
    35.4400       132
    35.5000       128
    35.5600       106
    35.6200       136
    35.6800       114
    35.7400       124
    35.8000       132
    35.8600       108
    35.9200       110
    35.9800       112
    36.0400       130
    36.1000       102
    36.1600       104
    36.2200        98
    36.2800        86
    36.3400        80
    36.4000       110
    36.4600       114
    36.5200       126
    36.5800       136
    36.6400       162
    36.7000       176
    36.7600       206
    36.8200       194
    36.8800       204
    36.9400       180
    37.0000       184
    37.0600       164
    37.1200       178
    37.1800       132
    37.2400       106
    37.3000        92
    37.3600        82
    37.4200        58
    37.4800        86
    37.5400        78
    37.6000        72
    37.6600        88
    37.7200        96
    37.7800        74
    37.8400        66
    37.9000        78
    37.9600        96
    38.0200        74
    38.0800        76
    38.1400        90
    38.2000        90
    38.2600        72
    38.3200        76
    38.3800        66
    38.4400        82
    38.5000        78
    38.5600        72
    38.6200        72
    38.6800        70
    38.7400        64
    38.8000        64
    38.8600        64
    38.9200        90
    38.9800        78
    39.0400        74
    39.1000        60
    39.1600        62
    39.2200        52
    39.2800        64
    39.3400        62
    39.4000        66
    39.4600        68
    39.5200        66
    39.5800        76
    39.6400        64
    39.7000        58
    39.7600        68
    39.8200        80
    39.8800        54
    39.9400        46
    40.0000        76
    40.0600        32
    40.1200        62
    40.1800        60
    40.2400        60
    40.3000        76
    40.3600        74
    40.4200        50
    40.4800        54
    40.5400        54
    40.6000        72
    40.6600        68
    40.7200        62
    40.7800        66
    40.8400        78
    40.9000        70
    40.9600        66
    41.0200        88
    41.0800        70
    41.1400        68
    41.2000        64
    41.2600        76
    41.3200        76
    41.3800        82
    41.4400        76
    41.5000        66
    41.5600        66
    41.6200        72
    41.6800        46
    41.7400        54
    41.8000        80
    41.8600        66
    41.9200        56
    41.9800        74
    42.0400        70
    42.1000        60
    42.1600        68
    42.2200        70
    42.2800        56
    42.3400        82
    42.4000        78
    42.4600        74
    42.5200        88
    42.5800        88
    42.6400        84
    42.7000        68
    42.7600        68
    42.8200        76
    42.8800        76
    42.9400        66
    43.0000        64
    43.0600        74
    43.1200       108
    43.1800       100
    43.2400       104
    43.3000       104
    43.3600       108
    43.4200        72
    43.4800        78
    43.5400        74
    43.6000        86
    43.6600        66
    43.7200        70
    43.7800        58
    43.8400        88
    43.9000        86
    43.9600        72
    44.0200        78
    44.0800        80
    44.1400        94
    44.2000        64
    44.2600        72
    44.3200        76
    44.3800        64
    44.4400        70
    44.5000        76
    44.5600        74
    44.6200        64
    44.6800        70
    44.7400        82
    44.8000        94
    44.8600       102
    44.9200       126
    44.9800        98
    45.0400        94
    45.1000        68
    45.1600        70
    45.2200        64
    45.2800        58
    45.3400        52
    45.4000        52
    45.4600        46
    45.5200        58
    45.5800        48
    45.6400        74
    45.7000        68
    45.7600        72
    45.8200        68
    45.8800        68
    45.9400        62
    46.0000        74
    46.0600        64
    46.1200        82
    46.1800       102
    46.2400       110
    46.3000       112
    46.3600       118
    46.4200       112
    46.4800        76
    46.5400        80
    46.6000        82
    46.6600        90
    46.7200       100
    46.7800       112
    46.8400       102
    46.9000        92
    46.9600        72
    47.0200        66
    47.0800        56
    47.1400        70
    47.2000        54
    47.2600        58
    47.3200        66
    47.3800        58
    47.4400        62
    47.5000        58
    47.5600        64
    47.6200        60
    47.6800        56
    47.7400        52
    47.8000        66
    47.8600        62
    47.9200        58
    47.9800        40
    48.0400        66
    48.1000        40
    48.1600        58
    48.2200        40
    48.2800        48
    48.3400        60
    48.4000        68
    48.4600        50
    48.5200        50
    48.5800        52
    48.6400        70
    48.7000        48
    48.7600        66
    48.8200        68
    48.8800        60
    48.9400        58
    49.0000        66
    49.0600        92
    49.1200        82
    49.1800        54
    49.2400        62
    49.3000        46
    49.3600        48
    49.4200        44
    49.4800        72
    49.5400        60
    49.6000        52
    49.6600        86
    49.7200        60
    49.7800        68
    49.8400        80
    49.9000        88
    49.9600        86
    50.0200        76
    50.0800        66
    50.1400        72
    50.2000        60
    50.2600        68
    50.3200        62
    50.3800        50
    50.4400        56
    50.5000        56
    50.5600        50
    50.6200        60
    50.6800        76
    50.7400        48
    50.8000        62
    50.8600        76
    50.9200        52
    50.9800        76
    51.0400        80
    51.1000        80
    51.1600        74
    51.2200        98
    51.2800        84
    51.3400        98
    51.4000        78
    51.4600       102
    51.5200        92
    51.5800        92
    51.6400       100
    51.7000       128
    51.7600       116
    51.8200       112
    51.8800        90
    51.9400        76
    52.0000        84
    52.0600       102
    52.1200        80
    52.1800        96
    52.2400        78
    52.3000        74
    52.3600        70
    52.4200        76
    52.4800        72
    52.5400        84
    52.6000        80
    52.6600        66
    52.7200        78
    52.7800        74
    52.8400        70
    52.9000        86
    52.9600        68
    53.0200        80
    53.0800        98
    53.1400        86
    53.2000        86
    53.2600        76
    53.3200        58
    53.3800        62
    53.4400        58
    53.5000        48
    53.5600        74
    53.6200        84
    53.6800        74
    53.7400        68
    53.8000        62
    53.8600        76
    53.9200        88
    53.9800        82
    54.0400       108
    54.1000       102
    54.1600       116
    54.2200       114
    54.2800        94
    54.3400        92
    54.4000        82
    54.4600        80
    54.5200        52
    54.5800        60
    54.6400        50
    54.7000        54
    54.7600        46
    54.8200        62
    54.8800        54
    54.9400        66
    55.0000        76
    55.0600        70
    55.1200        84
    55.1800        88
    55.2400        84
    55.3000        62
    55.3600        62
    55.4200        56
    55.4800        70
    55.5400        84
    55.6000        70
    55.6600        88
    55.7200        64
    55.7800        58
    55.8400        82
    55.9000        60
    55.9600        76
    56.0200        60
    56.0800        70
    56.1400        66
    56.2000        66
    56.2600        80
    56.3200        78
    56.3800        64
    56.4400        82
    56.5000        80
    56.5600        60
    56.6200        58
    56.6800        74
    56.7400        74
    56.8000        60
    56.8600        88
    56.9200        92
    56.9800        86
    57.0400        72
    57.1000        72
    57.1600        56
    57.2200        64
    57.2800        64
    57.3400        42
    57.4000        56
    57.4600        48
    57.5200        80
    57.5800        72
    57.6400        66
    57.7000        68
    57.7600        94
    57.8200        96
    57.8800        86
    57.9400        72
    58.0000       104
    58.0600        90
    58.1200        78
    58.1800        64
    58.2400        78
    58.3000        74
    58.3600        76
    58.4200        54
    58.4800        60
    58.5400        50
    58.6000        48
    58.6600        62
    58.7200        46
    58.7800        58
    58.8400        56
    58.9000        68
    58.9600        48
    59.0200        64
    59.0800        52
    59.1400        76
    59.2000        70
    59.2600        54
    59.3200        72
    59.3800        62
    59.4400        54
    59.5000        68
    59.5600        52
    59.6200        50
    59.6800        44
    59.7400        80
    59.8000        60
    59.8600        48
    59.9200        68
    59.9800        46
    60.0400        68
    60.1000        72
    60.1600        54
    60.2200        58
    60.2800        72
    60.3400        62
    60.4000        62
    60.4600        60
    60.5200        62
    60.5800        66
    60.6400        62
    60.7000        74
    60.7600        58
    60.8200        58
    60.8800        64
    60.9400        70
    61.0000        68
    61.0600        76
    61.1200        68
    61.1800        62
    61.2400        62
    61.3000        42
    61.3600        58
    61.4200        58
    61.4800        66
    61.5400        62
    61.6000        62
    61.6600        62
    61.7200        56
    61.7800        56
    61.8400        72
    61.9000        58
    61.9600        70
    62.0200        74
    62.0800        62
    62.1400        78
    62.2000        80
    62.2600        82
    62.3200        82
    62.3800        76
    62.4400        94
    62.5000        66
    62.5600        76
    62.6200        88
    62.6800        76
    62.7400        70
    62.8000        92
    62.8600        74
    62.9200        78
    62.9800        70
    63.0400        56
    63.1000        70
    63.1600        60
    63.2200        62
    63.2800        64
    63.3400        62
    63.4000        82
    63.4600        68
    63.5200        52
    63.5800        52
    63.6400        56
    63.7000        58
    63.7600        70
    63.8200        56
    63.8800        80
    63.9400        82
    64.0000        84
    64.0600        70
    64.1200        86
    64.1800        96
    64.2400        84
    64.3000        86
    64.3600        72
    64.4200        64
    64.4800        66
    64.5400        66
    64.6000        80
    64.6600        70
    64.7200        74
    64.7800        86
    64.8400        92
    64.9000        84
    64.9600        78
    65.0000        96