File: sl1/usgs/library06/DESCRIPT/new_xrd_results_to_be_added/Rhonda_Driscoll_xrd_runs/WS741---Heulandite.txt
/////////////////////////////////////////////////////////////////////////////////
/// Profile Data Ascii Dump (XRD)                                             ///
/////////////////////////////////////////////////////////////////////////////////

  Group     : Swayze
  Data      : WS741
  File Name : WS741.RAW

# Profile Datafile
          comment             = Heulandite
          date & time         = 08-03-13 07:23:46

# Measurement Condition
    X-ray tube
          target              = Cu
          voltage             = 40.0 (kV)
          current             = 30.0 (mA)
    Slits
          divergence slit     = 2.00000 (deg)
          scatter slit        = 2.00000 (deg)
          receiving slit      = 0.15000 (mm)
    Scanning
          drive axis          = Theta-2Theta
          scan range          =    4.000 -   65.000
          scan mode           = Continuous Scan
          scan speed          =   2.0000 (deg/min)
          sampling pitch      =   0.0200 (deg)
          preset time         =   0.60 (sec)

# Data      [ Total No. = 3051 ]
  <2Theta>   <   I   >
     4.0000       196
     4.0600       184
     4.1200       198
     4.1800       180
     4.2400       144
     4.3000       160
     4.3600       162
     4.4200       150
     4.4800       168
     4.5400       206
     4.6000       146
     4.6600       160
     4.7200       162
     4.7800       174
     4.8400       190
     4.9000       146
     4.9600       166
     5.0200       146
     5.0800       150
     5.1400       154
     5.2000       182
     5.2600       170
     5.3200       168
     5.3800       182
     5.4400       170
     5.5000       170
     5.5600       164
     5.6200       156
     5.6800       160
     5.7400       176
     5.8000       146
     5.8600       166
     5.9200       134
     5.9800       168
     6.0400       146
     6.1000       188
     6.1600       172
     6.2200       142
     6.2800       190
     6.3400       168
     6.4000       156
     6.4600       130
     6.5200       116
     6.5800       148
     6.6400       136
     6.7000       120
     6.7600       134
     6.8200       122
     6.8800       140
     6.9400       132
     7.0000       100
     7.0600       114
     7.1200       110
     7.1800       118
     7.2400       122
     7.3000       114
     7.3600       114
     7.4200       110
     7.4800       108
     7.5400       120
     7.6000       120
     7.6600       120
     7.7200       106
     7.7800       118
     7.8400       102
     7.9000       120
     7.9600       118
     8.0200       104
     8.0800        86
     8.1400       112
     8.2000       110
     8.2600       108
     8.3200       116
     8.3800       118
     8.4400       112
     8.5000       114
     8.5600       126
     8.6200       126
     8.6800       154
     8.7400       126
     8.8000       150
     8.8600       144
     8.9200       120
     8.9800       146
     9.0400       128
     9.1000       142
     9.1600       148
     9.2200       168
     9.2800       186
     9.3400       238
     9.4000       266
     9.4600       460
     9.5200       586
     9.5800       882
     9.6400      1336
     9.7000      2450
     9.7600      8158
     9.8200      9818
     9.8800      2894
     9.9400       478
    10.0000       304
    10.0600       276
    10.1200       162
    10.1800       108
    10.2400       110
    10.3000       108
    10.3600       104
    10.4200       120
    10.4800       124
    10.5400       108
    10.6000       114
    10.6600        92
    10.7200        94
    10.7800        90
    10.8400       120
    10.9000       120
    10.9600       128
    11.0200       154
    11.0800       126
    11.1400       120
    11.2000       108
    11.2600        98
    11.3200        98
    11.3800        92
    11.4400        98
    11.5000        80
    11.5600        92
    11.6200        90
    11.6800        70
    11.7400        90
    11.8000        68
    11.8600        86
    11.9200        84
    11.9800       106
    12.0400        74
    12.1000        74
    12.1600        84
    12.2200        74
    12.2800        66
    12.3400        72
    12.4000        78
    12.4600        68
    12.5200        74
    12.5800        88
    12.6400       144
    12.7000       166
    12.7600        94
    12.8200       112
    12.8800       138
    12.9400       124
    13.0000        90
    13.0600        80
    13.1200        88
    13.1800       112
    13.2400       112
    13.3000        64
    13.3600        88
    13.4200        56
    13.4800        70
    13.5400        72
    13.6000        68
    13.6600        68
    13.7200        78
    13.7800        64
    13.8400        80
    13.9000        88
    13.9600        60
    14.0200        58
    14.0800        72
    14.1400        70
    14.2000        66
    14.2600        68
    14.3200        78
    14.3800        64
    14.4400        56
    14.5000        70
    14.5600        54
    14.6200        62
    14.6800        84
    14.7400        84
    14.8000        78
    14.8600        74
    14.9200        66
    14.9800        68
    15.0400        60
    15.1000        70
    15.1600        60
    15.2200        64
    15.2800        46
    15.3400        60
    15.4000        62
    15.4600        78
    15.5200        72
    15.5800        76
    15.6400        96
    15.7000       114
    15.7600       136
    15.8200        92
    15.8800        56
    15.9400        78
    16.0000        56
    16.0600        70
    16.1200        58
    16.1800        68
    16.2400        76
    16.3000        80
    16.3600        62
    16.4200        90
    16.4800       110
    16.5400        90
    16.6000       120
    16.6600       120
    16.7200       120
    16.7800       120
    16.8400       118
    16.9000        80
    16.9600        70
    17.0200       100
    17.0800        82
    17.1400       134
    17.2000       126
    17.2600       134
    17.3200       126
    17.3800       116
    17.4400        92
    17.5000        80
    17.5600        54
    17.6200        56
    17.6800        68
    17.7400        56
    17.8000        60
    17.8600        58
    17.9200        54
    17.9800        62
    18.0400        54
    18.1000        62
    18.1600        64
    18.2200        62
    18.2800        64
    18.3400        60
    18.4000        60
    18.4600        58
    18.5200        56
    18.5800        86
    18.6400        76
    18.7000        84
    18.7600       134
    18.8200       154
    18.8800       270
    18.9400       338
    19.0000       292
    19.0600       128
    19.1200        68
    19.1800        56
    19.2400        60
    19.3000        52
    19.3600        62
    19.4200        68
    19.4800        64
    19.5400        64
    19.6000        88
    19.6600       116
    19.7200       214
    19.7800       206
    19.8400       140
    19.9000        76
    19.9600        66
    20.0200        66
    20.0800        66
    20.1400       114
    20.2000       108
    20.2600        96
    20.3200        64
    20.3800        58
    20.4400        64
    20.5000        68
    20.5600        52
    20.6200        58
    20.6800        38
    20.7400        58
    20.8000        50
    20.8600        50
    20.9200        62
    20.9800        60
    21.0400        46
    21.1000        40
    21.1600        60
    21.2200        54
    21.2800        62
    21.3400        58
    21.4000        50
    21.4600        56
    21.5200        80
    21.5800        58
    21.6400        60
    21.7000        76
    21.7600        66
    21.8200        80
    21.8800        78
    21.9400        92
    22.0000       112
    22.0600       162
    22.1200       312
    22.1800       480
    22.2400       552
    22.3000       418
    22.3600       322
    22.4200       232
    22.4800       236
    22.5400       248
    22.6000       364
    22.6600       500
    22.7200       476
    22.7800       288
    22.8400       136
    22.9000        84
    22.9600       108
    23.0200        90
    23.0800       134
    23.1400        88
    23.2000        62
    23.2600        60
    23.3200        44
    23.3800        60
    23.4400        70
    23.5000        60
    23.5600        82
    23.6200       126
    23.6800       118
    23.7400       112
    23.8000       108
    23.8600        86
    23.9200        66
    23.9800        70
    24.0400        50
    24.1000        64
    24.1600        54
    24.2200        44
    24.2800        58
    24.3400        54
    24.4000        82
    24.4600        64
    24.5200        56
    24.5800        56
    24.6400        52
    24.7000        68
    24.7600       104
    24.8200       128
    24.8800       102
    24.9400        90
    25.0000        82
    25.0600        70
    25.1200        64
    25.1800        98
    25.2400        82
    25.3000        84
    25.3600       136
    25.4200       136
    25.4800       120
    25.5400       122
    25.6000        98
    25.6600        76
    25.7200       118
    25.7800       184
    25.8400       216
    25.9000       236
    25.9600       162
    26.0200       132
    26.0800       118
    26.1400       112
    26.2000        80
    26.2600        64
    26.3200        52
    26.3800        48
    26.4400        60
    26.5000        78
    26.5600        62
    26.6200        90
    26.6800        78
    26.7400        74
    26.8000        58
    26.8600        58
    26.9200        58
    26.9800        52
    27.0400        40
    27.1000        44
    27.1600        66
    27.2200        48
    27.2800        46
    27.3400        56
    27.4000        56
    27.4600        66
    27.5200        52
    27.5800        48
    27.6400        60
    27.7000       100
    27.7600       136
    27.8200       156
    27.8800       146
    27.9400       184
    28.0000       160
    28.0600       106
    28.1200        92
    28.1800        80
    28.2400        78
    28.3000       162
    28.3600       212
    28.4200       242
    28.4800       194
    28.5400       132
    28.6000       124
    28.6600        78
    28.7200        80
    28.7800       112
    28.8400       138
    28.9000       138
    28.9600       124
    29.0200        86
    29.0800        62
    29.1400        84
    29.2000        68
    29.2600        86
    29.3200        80
    29.3800        78
    29.4400       104
    29.5000       144
    29.5600       214
    29.6200       320
    29.6800       420
    29.7400       586
    29.8000       914
    29.8600      1224
    29.9200      1316
    29.9800      1138
    30.0400       818
    30.1000       472
    30.1600       264
    30.2200       146
    30.2800        90
    30.3400        58
    30.4000        50
    30.4600        56
    30.5200        74
    30.5800        42
    30.6400        42
    30.7000        48
    30.7600        52
    30.8200        84
    30.8800        60
    30.9400        52
    31.0000        56
    31.0600        44
    31.1200        58
    31.1800        42
    31.2400        54
    31.3000        60
    31.3600        46
    31.4200        64
    31.4800        48
    31.5400        62
    31.6000        90
    31.6600       132
    31.7200       208
    31.7800       312
    31.8400       298
    31.9000       256
    31.9600       160
    32.0200        68
    32.0800        66
    32.1400        56
    32.2000        50
    32.2600        92
    32.3200        86
    32.3800        86
    32.4400       106
    32.5000       154
    32.5600       216
    32.6200       274
    32.6800       348
    32.7400       384
    32.8000       308
    32.8600       248
    32.9200       136
    32.9800        80
    33.0400        64
    33.1000        52
    33.1600        50
    33.2200        56
    33.2800        50
    33.3400        62
    33.4000        76
    33.4600        72
    33.5200        72
    33.5800        44
    33.6400        50
    33.7000        68
    33.7600        42
    33.8200        30
    33.8800        34
    33.9400        36
    34.0000        38
    34.0600        42
    34.1200        60
    34.1800        40
    34.2400        46
    34.3000        48
    34.3600        38
    34.4200        36
    34.4800        44
    34.5400        44
    34.6000        46
    34.6600        48
    34.7200        70
    34.7800        48
    34.8400        50
    34.9000        50
    34.9600        58
    35.0200        60
    35.0800        88
    35.1400        70
    35.2000        92
    35.2600       120
    35.3200       138
    35.3800       202
    35.4400       192
    35.5000       246
    35.5600       250
    35.6200       162
    35.6800       102
    35.7400        66
    35.8000        72
    35.8600        64
    35.9200        54
    35.9800        86
    36.0400        82
    36.1000        80
    36.1600        70
    36.2200        60
    36.2800       102
    36.3400       112
    36.4000        92
    36.4600       106
    36.5200        82
    36.5800       106
    36.6400       134
    36.7000       146
    36.7600       122
    36.8200       114
    36.8800       150
    36.9400       174
    37.0000       116
    37.0600       128
    37.1200        72
    37.1800        60
    37.2400        40
    37.3000        44
    37.3600        54
    37.4200        42
    37.4800        54
    37.5400        60
    37.6000        58
    37.6600        58
    37.7200        58
    37.7800        80
    37.8400        78
    37.9000        84
    37.9600        66
    38.0200        68
    38.0800        64
    38.1400        78
    38.2000       104
    38.2600        90
    38.3200        80
    38.3800        48
    38.4400        42
    38.5000        60
    38.5600        58
    38.6200        60
    38.6800        86
    38.7400        76
    38.8000        82
    38.8600        96
    38.9200        76
    38.9800       102
    39.0400        92
    39.1000        56
    39.1600        58
    39.2200        54
    39.2800        50
    39.3400        48
    39.4000        76
    39.4600        54
    39.5200        66
    39.5800        56
    39.6400        62
    39.7000        48
    39.7600        44
    39.8200        60
    39.8800        70
    39.9400        62
    40.0000        72
    40.0600       134
    40.1200       246
    40.1800       258
    40.2400       306
    40.3000       326
    40.3600       254
    40.4200       156
    40.4800        80
    40.5400        54
    40.6000        58
    40.6600        56
    40.7200        42
    40.7800        52
    40.8400        60
    40.9000        70
    40.9600        68
    41.0200        62
    41.0800        52
    41.1400        56
    41.2000        40
    41.2600        50
    41.3200        34
    41.3800        58
    41.4400        44
    41.5000        44
    41.5600        36
    41.6200        50
    41.6800        52
    41.7400        38
    41.8000        74
    41.8600        76
    41.9200        86
    41.9800        78
    42.0400        60
    42.1000        66
    42.1600        62
    42.2200        76
    42.2800        84
    42.3400       124
    42.4000        98
    42.4600       112
    42.5200        86
    42.5800        98
    42.6400        76
    42.7000        68
    42.7600        48
    42.8200        42
    42.8800        52
    42.9400        42
    43.0000        58
    43.0600        70
    43.1200        70
    43.1800        94
    43.2400        76
    43.3000        70
    43.3600        58
    43.4200        68
    43.4800        68
    43.5400        76
    43.6000        84
    43.6600        62
    43.7200        64
    43.7800        56
    43.8400        56
    43.9000        58
    43.9600        48
    44.0200        52
    44.0800        56
    44.1400        60
    44.2000        42
    44.2600        32
    44.3200        40
    44.3800        56
    44.4400        56
    44.5000        46
    44.5600        60
    44.6200        62
    44.6800        64
    44.7400        68
    44.8000        74
    44.8600        68
    44.9200        46
    44.9800        42
    45.0400        54
    45.1000        46
    45.1600        46
    45.2200        46
    45.2800        44
    45.3400        44
    45.4000        38
    45.4600        54
    45.5200        66
    45.5800        68
    45.6400        80
    45.7000       106
    45.7600       140
    45.8200       146
    45.8800       154
    45.9400       192
    46.0000       200
    46.0600       194
    46.1200       170
    46.1800       168
    46.2400       156
    46.3000       106
    46.3600        76
    46.4200        56
    46.4800        68
    46.5400        62
    46.6000        54
    46.6600        74
    46.7200        66
    46.7800        52
    46.8400        48
    46.9000        50
    46.9600        60
    47.0200        52
    47.0800        66
    47.1400        98
    47.2000        88
    47.2600       108
    47.3200       116
    47.3800        82
    47.4400        84
    47.5000        64
    47.5600        44
    47.6200        46
    47.6800        46
    47.7400        48
    47.8000        46
    47.8600        36
    47.9200        50
    47.9800        36
    48.0400        50
    48.1000        46
    48.1600        44
    48.2200        52
    48.2800        40
    48.3400        44
    48.4000        38
    48.4600        42
    48.5200        58
    48.5800        56
    48.6400        64
    48.7000        66
    48.7600        68
    48.8200        94
    48.8800        78
    48.9400        86
    49.0000        78
    49.0600        68
    49.1200        52
    49.1800        54
    49.2400        48
    49.3000        44
    49.3600        54
    49.4200        42
    49.4800        50
    49.5400        50
    49.6000        52
    49.6600        64
    49.7200        82
    49.7800       110
    49.8400       104
    49.9000        72
    49.9600        70
    50.0200        72
    50.0800        60
    50.1400        62
    50.2000        68
    50.2600        68
    50.3200        66
    50.3800        44
    50.4400        50
    50.5000        70
    50.5600        76
    50.6200        72
    50.6800       136
    50.7400       216
    50.8000       398
    50.8600       708
    50.9200       596
    50.9800       700
    51.0400       628
    51.1000       498
    51.1600       338
    51.2200       226
    51.2800       168
    51.3400        98
    51.4000        82
    51.4600        88
    51.5200       106
    51.5800        80
    51.6400       102
    51.7000        76
    51.7600        74
    51.8200        62
    51.8800        70
    51.9400        58
    52.0000        62
    52.0600        70
    52.1200        66
    52.1800        62
    52.2400        68
    52.3000        90
    52.3600        94
    52.4200        90
    52.4800        84
    52.5400        82
    52.6000        66
    52.6600       106
    52.7200       120
    52.7800       144
    52.8400       186
    52.9000       164
    52.9600       172
    53.0200       186
    53.0800       138
    53.1400       108
    53.2000        98
    53.2600        70
    53.3200        68
    53.3800        36
    53.4400        38
    53.5000        60
    53.5600        52
    53.6200        48
    53.6800        60
    53.7400        58
    53.8000        74
    53.8600        58
    53.9200        80
    53.9800        78
    54.0400        74
    54.1000        58
    54.1600        48
    54.2200        38
    54.2800        52
    54.3400        54
    54.4000        60
    54.4600        46
    54.5200        42
    54.5800        50
    54.6400        52
    54.7000        44
    54.7600        56
    54.8200        60
    54.8800        46
    54.9400        56
    55.0000        68
    55.0600        52
    55.1200        42
    55.1800        34
    55.2400        48
    55.3000        52
    55.3600        52
    55.4200        80
    55.4800        72
    55.5400        82
    55.6000        88
    55.6600        86
    55.7200        96
    55.7800       122
    55.8400        76
    55.9000        80
    55.9600        58
    56.0200        60
    56.0800        70
    56.1400        78
    56.2000        68
    56.2600        76
    56.3200        54
    56.3800        54
    56.4400        48
    56.5000        42
    56.5600        36
    56.6200        32
    56.6800        60
    56.7400        58
    56.8000        58
    56.8600        48
    56.9200        52
    56.9800        52
    57.0400        44
    57.1000        46
    57.1600        44
    57.2200        36
    57.2800        42
    57.3400        42
    57.4000        38
    57.4600        36
    57.5200        36
    57.5800        50
    57.6400        42
    57.7000        62
    57.7600        58
    57.8200        52
    57.8800        64
    57.9400        48
    58.0000        58
    58.0600        46
    58.1200        46
    58.1800        34
    58.2400        54
    58.3000        40
    58.3600        40
    58.4200        32
    58.4800        40
    58.5400        40
    58.6000        42
    58.6600        50
    58.7200        42
    58.7800        38
    58.8400        44
    58.9000        54
    58.9600        54
    59.0200        68
    59.0800        62
    59.1400        78
    59.2000        70
    59.2600        62
    59.3200        72
    59.3800        62
    59.4400        72
    59.5000        52
    59.5600        58
    59.6200        40
    59.6800        32
    59.7400        48
    59.8000        46
    59.8600        44
    59.9200        46
    59.9800        42
    60.0400        54
    60.1000        38
    60.1600        46
    60.2200        44
    60.2800        34
    60.3400        36
    60.4000        40
    60.4600        44
    60.5200        48
    60.5800        56
    60.6400        56
    60.7000        74
    60.7600        60
    60.8200        68
    60.8800        70
    60.9400        62
    61.0000        42
    61.0600        44
    61.1200        42
    61.1800        42
    61.2400        40
    61.3000        50
    61.3600        50
    61.4200        30
    61.4800        42
    61.5400        44
    61.6000        28
    61.6600        48
    61.7200        52
    61.7800        48
    61.8400        56
    61.9000        88
    61.9600       128
    62.0200       140
    62.0800       186
    62.1400       176
    62.2000       200
    62.2600       206
    62.3200       204
    62.3800       170
    62.4400       124
    62.5000       112
    62.5600        94
    62.6200        76
    62.6800        64
    62.7400        56
    62.8000        60
    62.8600        58
    62.9200        62
    62.9800        52
    63.0400        68
    63.1000        58
    63.1600        72
    63.2200        62
    63.2800        72
    63.3400        54
    63.4000        82
    63.4600       102
    63.5200       102
    63.5800        82
    63.6400        96
    63.7000        76
    63.7600        80
    63.8200        82
    63.8800        88
    63.9400        52
    64.0000        74
    64.0600        76
    64.1200        62
    64.1800        54
    64.2400        66
    64.3000        46
    64.3600        38
    64.4200        52
    64.4800        54
    64.5400        64
    64.6000        58
    64.6600        62
    64.7200        66
    64.7800        82
    64.8400        92
    64.9000        74
    64.9600        58
    65.0000        62