File: sl1/usgs/library06/DESCRIPT/new_xrd_results_to_be_added/Rhonda_Driscoll_xrd_runs/WS747---Scolecite.txt
/////////////////////////////////////////////////////////////////////////////////
/// Profile Data Ascii Dump (XRD)                                             ///
/////////////////////////////////////////////////////////////////////////////////

  Group     : Swayze
  Data      : WS747
  File Name : WS747.RAW

# Profile Datafile
          comment             = Scolecite
          date & time         = 08-03-13 07:54:41

# Measurement Condition
    X-ray tube
          target              = Cu
          voltage             = 40.0 (kV)
          current             = 30.0 (mA)
    Slits
          divergence slit     = 2.00000 (deg)
          scatter slit        = 2.00000 (deg)
          receiving slit      = 0.15000 (mm)
    Scanning
          drive axis          = Theta-2Theta
          scan range          =    4.000 -   65.000
          scan mode           = Continuous Scan
          scan speed          =   2.0000 (deg/min)
          sampling pitch      =   0.0200 (deg)
          preset time         =   0.60 (sec)

# Data      [ Total No. = 3051 ]
  <2Theta>   <   I   >
     4.0000       206
     4.0600       184
     4.1200       174
     4.1800       158
     4.2400       154
     4.3000       162
     4.3600       164
     4.4200       150
     4.4800       176
     4.5400       184
     4.6000       186
     4.6600       130
     4.7200       160
     4.7800       162
     4.8400       180
     4.9000       154
     4.9600       172
     5.0200       146
     5.0800       152
     5.1400       164
     5.2000       164
     5.2600       148
     5.3200       146
     5.3800       144
     5.4400       136
     5.5000       166
     5.5600       154
     5.6200       120
     5.6800       144
     5.7400       170
     5.8000       146
     5.8600       134
     5.9200       168
     5.9800       156
     6.0400       152
     6.1000       152
     6.1600       142
     6.2200       164
     6.2800       118
     6.3400       124
     6.4000       140
     6.4600       142
     6.5200       140
     6.5800       128
     6.6400       130
     6.7000       130
     6.7600       110
     6.8200       128
     6.8800       110
     6.9400       118
     7.0000       124
     7.0600       100
     7.1200       118
     7.1800       148
     7.2400       126
     7.3000        90
     7.3600       104
     7.4200       108
     7.4800       128
     7.5400       106
     7.6000       108
     7.6600       108
     7.7200       114
     7.7800       102
     7.8400       114
     7.9000       110
     7.9600       106
     8.0200       124
     8.0800       100
     8.1400       112
     8.2000       122
     8.2600       136
     8.3200       122
     8.3800       102
     8.4400       126
     8.5000       110
     8.5600       118
     8.6200       106
     8.6800       136
     8.7400       116
     8.8000       120
     8.8600       132
     8.9200       112
     8.9800       142
     9.0400       198
     9.1000       224
     9.1600       232
     9.2200       286
     9.2800       406
     9.3400       636
     9.4000       862
     9.4600       994
     9.5200      2142
     9.5800      6702
     9.6400      6230
     9.7000      1770
     9.7600       514
     9.8200       462
     9.8800       408
     9.9400       184
    10.0000       128
    10.0600       114
    10.1200       108
    10.1800       108
    10.2400        96
    10.3000        96
    10.3600       108
    10.4200       106
    10.4800       102
    10.5400        86
    10.6000        84
    10.6600        90
    10.7200        80
    10.7800        96
    10.8400        96
    10.9000        88
    10.9600       100
    11.0200        94
    11.0800        80
    11.1400        76
    11.2000        80
    11.2600        92
    11.3200        90
    11.3800        68
    11.4400        76
    11.5000        76
    11.5600        98
    11.6200        60
    11.6800        88
    11.7400        84
    11.8000        88
    11.8600        78
    11.9200        70
    11.9800        90
    12.0400        76
    12.1000        94
    12.1600        78
    12.2200        80
    12.2800        88
    12.3400        72
    12.4000        70
    12.4600        72
    12.5200        88
    12.5800        84
    12.6400        70
    12.7000        86
    12.7600        90
    12.8200        92
    12.8800        86
    12.9400        84
    13.0000        94
    13.0600        86
    13.1200       184
    13.1800       216
    13.2400       266
    13.3000       460
    13.3600       216
    13.4200       118
    13.4800        66
    13.5400        88
    13.6000        64
    13.6600        78
    13.7200        90
    13.7800        90
    13.8400        76
    13.9000        56
    13.9600        70
    14.0200        72
    14.0800        66
    14.1400        62
    14.2000        54
    14.2600        62
    14.3200        64
    14.3800        66
    14.4400        76
    14.5000        70
    14.5600        72
    14.6200        82
    14.6800        76
    14.7400        74
    14.8000        78
    14.8600        76
    14.9200        68
    14.9800       110
    15.0400        80
    15.1000        72
    15.1600        70
    15.2200        74
    15.2800        64
    15.3400        66
    15.4000        56
    15.4600        48
    15.5200        68
    15.5800        64
    15.6400        76
    15.7000        74
    15.7600        60
    15.8200        52
    15.8800        64
    15.9400        68
    16.0000        72
    16.0600        70
    16.1200        74
    16.1800       102
    16.2400       102
    16.3000        96
    16.3600       116
    16.4200       106
    16.4800        86
    16.5400       136
    16.6000       132
    16.6600       152
    16.7200        96
    16.7800        70
    16.8400        80
    16.9000        72
    16.9600        68
    17.0200        60
    17.0800        60
    17.1400        56
    17.2000        56
    17.2600        66
    17.3200        60
    17.3800        54
    17.4400        46
    17.5000        58
    17.5600        50
    17.6200        50
    17.6800        54
    17.7400        62
    17.8000        54
    17.8600        52
    17.9200        60
    17.9800        68
    18.0400        80
    18.1000        46
    18.1600        64
    18.2200        66
    18.2800        66
    18.3400        58
    18.4000        86
    18.4600       212
    18.5200       218
    18.5800       260
    18.6400       250
    18.7000       166
    18.7600       174
    18.8200       172
    18.8800       238
    18.9400       490
    19.0000       476
    19.0600       346
    19.1200       202
    19.1800       158
    19.2400       212
    19.3000       398
    19.3600       340
    19.4200       250
    19.4800       108
    19.5400        82
    19.6000        72
    19.6600       108
    19.7200        90
    19.7800       114
    19.8400       118
    19.9000       124
    19.9600       288
    20.0200       236
    20.0800       126
    20.1400       128
    20.2000       110
    20.2600        70
    20.3200        68
    20.3800        66
    20.4400        76
    20.5000       104
    20.5600       134
    20.6200       192
    20.6800       368
    20.7400       498
    20.8000       228
    20.8600       114
    20.9200       148
    20.9800       218
    21.0400       138
    21.1000        92
    21.1600       114
    21.2200       214
    21.2800       218
    21.3400       138
    21.4000        96
    21.4600       154
    21.5200       196
    21.5800       344
    21.6400       590
    21.7000      1056
    21.7600      1448
    21.8200      1252
    21.8800       916
    21.9400       482
    22.0000       210
    22.0600       330
    22.1200       428
    22.1800       226
    22.2400        86
    22.3000        52
    22.3600        56
    22.4200        40
    22.4800        60
    22.5400        48
    22.6000        54
    22.6600        64
    22.7200        56
    22.7800        50
    22.8400        50
    22.9000        64
    22.9600        50
    23.0200        58
    23.0800        44
    23.1400        60
    23.2000        48
    23.2600        74
    23.3200        62
    23.3800        66
    23.4400        58
    23.5000        52
    23.5600        82
    23.6200       114
    23.6800       118
    23.7400       102
    23.8000       102
    23.8600       108
    23.9200        74
    23.9800        64
    24.0400        46
    24.1000        48
    24.1600        56
    24.2200        66
    24.2800        66
    24.3400        68
    24.4000        44
    24.4600        52
    24.5200        48
    24.5800        62
    24.6400        42
    24.7000        52
    24.7600        58
    24.8200        48
    24.8800        68
    24.9400        52
    25.0000        62
    25.0600        50
    25.1200        56
    25.1800        44
    25.2400        74
    25.3000       126
    25.3600       130
    25.4200       140
    25.4800        94
    25.5400        62
    25.6000        66
    25.6600        82
    25.7200        86
    25.7800        78
    25.8400        66
    25.9000        76
    25.9600       110
    26.0200       164
    26.0800       318
    26.1400       340
    26.2000       232
    26.2600       146
    26.3200       104
    26.3800        72
    26.4400        64
    26.5000        64
    26.5600        56
    26.6200        50
    26.6800        34
    26.7400        56
    26.8000        58
    26.8600        68
    26.9200        54
    26.9800        66
    27.0400        54
    27.1000        46
    27.1600        50
    27.2200        42
    27.2800        60
    27.3400        54
    27.4000        50
    27.4600        78
    27.5200        82
    27.5800        88
    27.6400        66
    27.7000       120
    27.7600       196
    27.8200       290
    27.8800       406
    27.9400       340
    28.0000       262
    28.0600       224
    28.1200       148
    28.1800       110
    28.2400        64
    28.3000        52
    28.3600        72
    28.4200        72
    28.4800        86
    28.5400        80
    28.6000       154
    28.6600       130
    28.7200        96
    28.7800       100
    28.8400        84
    28.9000       112
    28.9600       130
    29.0200       150
    29.0800       410
    29.1400       534
    29.2000       864
    29.2600      1396
    29.3200      1418
    29.3800       986
    29.4400       448
    29.5000       280
    29.5600       352
    29.6200       380
    29.6800       346
    29.7400       252
    29.8000       178
    29.8600       124
    29.9200       116
    29.9800       134
    30.0400        84
    30.1000        94
    30.1600        64
    30.2200        80
    30.2800       110
    30.3400       158
    30.4000       158
    30.4600       124
    30.5200        98
    30.5800        90
    30.6400       128
    30.7000       170
    30.7600       192
    30.8200       214
    30.8800       208
    30.9400       200
    31.0000       178
    31.0600       166
    31.1200       186
    31.1800       422
    31.2400       206
    31.3000        92
    31.3600        56
    31.4200        52
    31.4800        90
    31.5400        90
    31.6000       104
    31.6600        58
    31.7200       100
    31.7800        88
    31.8400        88
    31.9000       104
    31.9600       140
    32.0200       326
    32.0800       404
    32.1400       414
    32.2000       256
    32.2600       136
    32.3200        88
    32.3800        56
    32.4400        52
    32.5000        46
    32.5600        46
    32.6200        52
    32.6800        48
    32.7400        64
    32.8000       102
    32.8600        86
    32.9200        82
    32.9800        84
    33.0400        80
    33.1000        58
    33.1600        72
    33.2200        50
    33.2800        60
    33.3400        52
    33.4000        42
    33.4600        56
    33.5200        58
    33.5800        58
    33.6400        64
    33.7000        60
    33.7600        40
    33.8200        40
    33.8800        54
    33.9400        56
    34.0000        68
    34.0600        58
    34.1200        76
    34.1800       118
    34.2400       136
    34.3000       124
    34.3600       106
    34.4200        84
    34.4800       102
    34.5400       136
    34.6000       140
    34.6600       158
    34.7200       130
    34.7800       150
    34.8400       186
    34.9000       166
    34.9600       146
    35.0200       104
    35.0800        74
    35.1400       100
    35.2000       108
    35.2600        90
    35.3200        90
    35.3800        88
    35.4400        66
    35.5000        70
    35.5600       126
    35.6200       132
    35.6800       104
    35.7400        76
    35.8000        66
    35.8600        82
    35.9200       130
    35.9800       128
    36.0400       114
    36.1000        84
    36.1600       106
    36.2200        72
    36.2800        76
    36.3400        86
    36.4000        76
    36.4600        56
    36.5200        74
    36.5800        62
    36.6400        64
    36.7000        64
    36.7600        76
    36.8200        50
    36.8800        64
    36.9400        38
    37.0000        48
    37.0600        36
    37.1200        46
    37.1800        46
    37.2400        42
    37.3000        38
    37.3600        38
    37.4200        36
    37.4800        54
    37.5400        30
    37.6000        44
    37.6600        54
    37.7200        46
    37.7800        72
    37.8400        70
    37.9000        58
    37.9600        88
    38.0200       126
    38.0800       124
    38.1400       112
    38.2000       106
    38.2600        84
    38.3200        56
    38.3800        46
    38.4400        58
    38.5000        58
    38.5600        68
    38.6200        78
    38.6800        80
    38.7400        94
    38.8000       102
    38.8600        82
    38.9200        66
    38.9800        64
    39.0400        58
    39.1000        56
    39.1600        56
    39.2200        54
    39.2800        58
    39.3400        54
    39.4000        64
    39.4600        64
    39.5200        58
    39.5800        68
    39.6400        80
    39.7000        62
    39.7600        60
    39.8200        56
    39.8800        60
    39.9400        58
    40.0000        82
    40.0600        74
    40.1200        88
    40.1800        68
    40.2400        72
    40.3000        50
    40.3600        98
    40.4200        80
    40.4800        82
    40.5400        86
    40.6000        96
    40.6600       130
    40.7200       232
    40.7800       254
    40.8400       180
    40.9000       138
    40.9600        96
    41.0200        64
    41.0800        60
    41.1400        56
    41.2000        44
    41.2600        46
    41.3200        40
    41.3800        64
    41.4400        62
    41.5000        66
    41.5600        70
    41.6200       100
    41.6800        86
    41.7400        56
    41.8000        62
    41.8600        52
    41.9200        46
    41.9800        44
    42.0400        46
    42.1000        46
    42.1600        54
    42.2200        50
    42.2800        54
    42.3400        80
    42.4000        82
    42.4600        70
    42.5200        58
    42.5800        54
    42.6400        58
    42.7000        76
    42.7600        72
    42.8200        96
    42.8800       104
    42.9400        90
    43.0000        88
    43.0600        52
    43.1200        42
    43.1800        62
    43.2400        66
    43.3000        92
    43.3600       144
    43.4200       296
    43.4800       134
    43.5400       156
    43.6000       102
    43.6600       142
    43.7200       150
    43.7800       156
    43.8400       104
    43.9000        94
    43.9600        72
    44.0200        66
    44.0800       108
    44.1400        84
    44.2000        90
    44.2600       120
    44.3200        90
    44.3800       114
    44.4400       144
    44.5000       128
    44.5600       108
    44.6200        88
    44.6800        72
    44.7400        52
    44.8000        54
    44.8600        54
    44.9200        42
    44.9800        54
    45.0400        44
    45.1000        52
    45.1600        44
    45.2200        48
    45.2800        46
    45.3400        70
    45.4000        54
    45.4600        56
    45.5200        52
    45.5800        50
    45.6400        72
    45.7000        44
    45.7600        38
    45.8200        50
    45.8800        54
    45.9400        56
    46.0000        44
    46.0600        52
    46.1200        46
    46.1800        44
    46.2400        50
    46.3000        60
    46.3600        40
    46.4200        44
    46.4800        54
    46.5400        54
    46.6000        56
    46.6600        48
    46.7200        38
    46.7800        34
    46.8400        32
    46.9000        38
    46.9600        36
    47.0200        40
    47.0800        50
    47.1400        48
    47.2000        30
    47.2600        40
    47.3200        48
    47.3800        38
    47.4400        42
    47.5000        58
    47.5600        72
    47.6200        74
    47.6800       122
    47.7400       144
    47.8000       126
    47.8600       116
    47.9200       112
    47.9800        90
    48.0400        58
    48.1000        38
    48.1600        46
    48.2200        56
    48.2800        66
    48.3400        58
    48.4000        76
    48.4600        78
    48.5200        52
    48.5800        90
    48.6400        98
    48.7000       112
    48.7600        90
    48.8200        86
    48.8800        96
    48.9400        88
    49.0000        76
    49.0600        62
    49.1200        70
    49.1800        62
    49.2400        74
    49.3000        82
    49.3600        84
    49.4200        84
    49.4800        76
    49.5400       114
    49.6000       156
    49.6600       256
    49.7200       404
    49.7800       482
    49.8400      1024
    49.9000       792
    49.9600       580
    50.0200       456
    50.0800       292
    50.1400       138
    50.2000       170
    50.2600       146
    50.3200       130
    50.3800       150
    50.4400       112
    50.5000       102
    50.5600        74
    50.6200        58
    50.6800        52
    50.7400        64
    50.8000        76
    50.8600        70
    50.9200        70
    50.9800        66
    51.0400        90
    51.1000       112
    51.1600       154
    51.2200       130
    51.2800        88
    51.3400        92
    51.4000        62
    51.4600        60
    51.5200        64
    51.5800        66
    51.6400        68
    51.7000        64
    51.7600        52
    51.8200        70
    51.8800        50
    51.9400        66
    52.0000        74
    52.0600        72
    52.1200        66
    52.1800        68
    52.2400        78
    52.3000        56
    52.3600        46
    52.4200        66
    52.4800        70
    52.5400        62
    52.6000        66
    52.6600        88
    52.7200        78
    52.7800        88
    52.8400       100
    52.9000        86
    52.9600        86
    53.0200        66
    53.0800        56
    53.1400        50
    53.2000        46
    53.2600        34
    53.3200        34
    53.3800        34
    53.4400        42
    53.5000        34
    53.5600        52
    53.6200        52
    53.6800        60
    53.7400        50
    53.8000        48
    53.8600        60
    53.9200        54
    53.9800        46
    54.0400        36
    54.1000        54
    54.1600        72
    54.2200        68
    54.2800        40
    54.3400        54
    54.4000        38
    54.4600        40
    54.5200        44
    54.5800        48
    54.6400        46
    54.7000        52
    54.7600        58
    54.8200        70
    54.8800        52
    54.9400        58
    55.0000        66
    55.0600        66
    55.1200        88
    55.1800        88
    55.2400        74
    55.3000        48
    55.3600        62
    55.4200        44
    55.4800        38
    55.5400        48
    55.6000        46
    55.6600        42
    55.7200        52
    55.7800        72
    55.8400        92
    55.9000       110
    55.9600        96
    56.0200        84
    56.0800        90
    56.1400        68
    56.2000        70
    56.2600        62
    56.3200        48
    56.3800        74
    56.4400        82
    56.5000        38
    56.5600        62
    56.6200        70
    56.6800        92
    56.7400        60
    56.8000        72
    56.8600        72
    56.9200        64
    56.9800        62
    57.0400        60
    57.1000        46
    57.1600        54
    57.2200        62
    57.2800        52
    57.3400        44
    57.4000        54
    57.4600        58
    57.5200        78
    57.5800        86
    57.6400       126
    57.7000       126
    57.7600       106
    57.8200       150
    57.8800       182
    57.9400       128
    58.0000       156
    58.0600       144
    58.1200       112
    58.1800       102
    58.2400        90
    58.3000        72
    58.3600        46
    58.4200        78
    58.4800        56
    58.5400        46
    58.6000        54
    58.6600        58
    58.7200        98
    58.7800        88
    58.8400        54
    58.9000        76
    58.9600        70
    59.0200        60
    59.0800        74
    59.1400        82
    59.2000        98
    59.2600       146
    59.3200       180
    59.3800       120
    59.4400       122
    59.5000       118
    59.5600        66
    59.6200        62
    59.6800        64
    59.7400        48
    59.8000        48
    59.8600        40
    59.9200        34
    59.9800        36
    60.0400        42
    60.1000        28
    60.1600        30
    60.2200        58
    60.2800        32
    60.3400        36
    60.4000        36
    60.4600        30
    60.5200        34
    60.5800        34
    60.6400        40
    60.7000        46
    60.7600        60
    60.8200        58
    60.8800        46
    60.9400        62
    61.0000        54
    61.0600        52
    61.1200        48
    61.1800        46
    61.2400        38
    61.3000        34
    61.3600        38
    61.4200        46
    61.4800        46
    61.5400        42
    61.6000        42
    61.6600        58
    61.7200        58
    61.7800        48
    61.8400        68
    61.9000        52
    61.9600        68
    62.0200        36
    62.0800        42
    62.1400        38
    62.2000        62
    62.2600        50
    62.3200        48
    62.3800        48
    62.4400        40
    62.5000        44
    62.5600        58
    62.6200        46
    62.6800        40
    62.7400        44
    62.8000        38
    62.8600        46
    62.9200        54
    62.9800        52
    63.0400        50
    63.1000        52
    63.1600        62
    63.2200        70
    63.2800        62
    63.3400        66
    63.4000        56
    63.4600        48
    63.5200        48
    63.5800        46
    63.6400        54
    63.7000        36
    63.7600        44
    63.8200        34
    63.8800        44
    63.9400        42
    64.0000        38
    64.0600        36
    64.1200        54
    64.1800        56
    64.2400        60
    64.3000        62
    64.3600        70
    64.4200        92
    64.4800        62
    64.5400        68
    64.6000        56
    64.6600        72
    64.7200        72
    64.7800        68
    64.8400        62
    64.9000        58
    64.9600        48
    65.0000        46