File: sl1/usgs/library06/DESCRIPT/new_xrd_results_to_be_added/Rhonda_Driscoll_xrd_runs/WS749---Stilbite.txt
/////////////////////////////////////////////////////////////////////////////////
/// Profile Data Ascii Dump (XRD)                                             ///
/////////////////////////////////////////////////////////////////////////////////

  Group     : Swayze
  Data      : WS749
  File Name : WS749.RAW

# Profile Datafile
          comment             = Stilbite
          date & time         = 08-03-14 05:53:58

# Measurement Condition
    X-ray tube
          target              = Cu
          voltage             = 40.0 (kV)
          current             = 30.0 (mA)
    Slits
          divergence slit     = 2.00000 (deg)
          scatter slit        = 2.00000 (deg)
          receiving slit      = 0.15000 (mm)
    Scanning
          drive axis          = Theta-2Theta
          scan range          =    4.000 -   65.000
          scan mode           = Continuous Scan
          scan speed          =   2.0000 (deg/min)
          sampling pitch      =   0.0200 (deg)
          preset time         =   0.60 (sec)

# Data      [ Total No. = 3051 ]
  <2Theta>   <   I   >
     4.0000       192
     4.0600       194
     4.1200       210
     4.1800       192
     4.2400       188
     4.3000       176
     4.3600       160
     4.4200       186
     4.4800       172
     4.5400       166
     4.6000       174
     4.6600       156
     4.7200       154
     4.7800       204
     4.8400       200
     4.9000       166
     4.9600       158
     5.0200       170
     5.0800       180
     5.1400       170
     5.2000       174
     5.2600       160
     5.3200       166
     5.3800       170
     5.4400       170
     5.5000       168
     5.5600       154
     5.6200       130
     5.6800       146
     5.7400       190
     5.8000       182
     5.8600       176
     5.9200       156
     5.9800       164
     6.0400       174
     6.1000       156
     6.1600       180
     6.2200       148
     6.2800       154
     6.3400       162
     6.4000       168
     6.4600       150
     6.5200       130
     6.5800       134
     6.6400       118
     6.7000       138
     6.7600       140
     6.8200       142
     6.8800       136
     6.9400       142
     7.0000       110
     7.0600       144
     7.1200       124
     7.1800       118
     7.2400       116
     7.3000       118
     7.3600       118
     7.4200       110
     7.4800       132
     7.5400       134
     7.6000       110
     7.6600       124
     7.7200       114
     7.7800       122
     7.8400       108
     7.9000       146
     7.9600       128
     8.0200       112
     8.0800       104
     8.1400       126
     8.2000       132
     8.2600       126
     8.3200       136
     8.3800       132
     8.4400       136
     8.5000       136
     8.5600       166
     8.6200       152
     8.6800       148
     8.7400       184
     8.8000       134
     8.8600       164
     8.9200       188
     8.9800       166
     9.0400       182
     9.1000       176
     9.1600       224
     9.2200       298
     9.2800       404
     9.3400       532
     9.4000       908
     9.4600      1094
     9.5200      1684
     9.5800      3270
     9.6400      9594
     9.7000      9398
     9.7600      1856
     9.8200       628
     9.8800       678
     9.9400       630
    10.0000       300
    10.0600       154
    10.1200       128
    10.1800       112
    10.2400       116
    10.3000       100
    10.3600       122
    10.4200       116
    10.4800       114
    10.5400       106
    10.6000       106
    10.6600       118
    10.7200       104
    10.7800       102
    10.8400       102
    10.9000        92
    10.9600        96
    11.0200        82
    11.0800        74
    11.1400       104
    11.2000        90
    11.2600       110
    11.3200        94
    11.3800        88
    11.4400        88
    11.5000        94
    11.5600        94
    11.6200        80
    11.6800        88
    11.7400        82
    11.8000       100
    11.8600        84
    11.9200       104
    11.9800        82
    12.0400        90
    12.1000        88
    12.1600        88
    12.2200        78
    12.2800        98
    12.3400        62
    12.4000        96
    12.4600        70
    12.5200        82
    12.5800        70
    12.6400        74
    12.7000        76
    12.7600        68
    12.8200        72
    12.8800        96
    12.9400        66
    13.0000       100
    13.0600        88
    13.1200        54
    13.1800        84
    13.2400        78
    13.3000        76
    13.3600        74
    13.4200        76
    13.4800        98
    13.5400        72
    13.6000        88
    13.6600        84
    13.7200       114
    13.7800       124
    13.8400       112
    13.9000        84
    13.9600        92
    14.0200        84
    14.0800        88
    14.1400        58
    14.2000        66
    14.2600        80
    14.3200        68
    14.3800        68
    14.4400        90
    14.5000        90
    14.5600        68
    14.6200        84
    14.6800        80
    14.7400        70
    14.8000        62
    14.8600        64
    14.9200        60
    14.9800        82
    15.0400        84
    15.1000        58
    15.1600        52
    15.2200        74
    15.2800        72
    15.3400        64
    15.4000        54
    15.4600        62
    15.5200        68
    15.5800        68
    15.6400        46
    15.7000        80
    15.7600        66
    15.8200        64
    15.8800        68
    15.9400        78
    16.0000        76
    16.0600        62
    16.1200        64
    16.1800        84
    16.2400        72
    16.3000        64
    16.3600        76
    16.4200        86
    16.4800       104
    16.5400       106
    16.6000       204
    16.6600       176
    16.7200       108
    16.7800        90
    16.8400       100
    16.9000       110
    16.9600        86
    17.0200        48
    17.0800        88
    17.1400        68
    17.2000        62
    17.2600        60
    17.3200        64
    17.3800        52
    17.4400        72
    17.5000        54
    17.5600        76
    17.6200        64
    17.6800        62
    17.7400        80
    17.8000        44
    17.8600        68
    17.9200        62
    17.9800        68
    18.0400        66
    18.1000        68
    18.1600        52
    18.2200        64
    18.2800        54
    18.3400        72
    18.4000        66
    18.4600        80
    18.5200        76
    18.5800        48
    18.6400        74
    18.7000        92
    18.7600       114
    18.8200       128
    18.8800       194
    18.9400       238
    19.0000       200
    19.0600       218
    19.1200       204
    19.1800       212
    19.2400       182
    19.3000       276
    19.3600       642
    19.4200       596
    19.4800       276
    19.5400       106
    19.6000       110
    19.6600       114
    19.7200        96
    19.7800        90
    19.8400       100
    19.9000        98
    19.9600       236
    20.0200       156
    20.0800        82
    20.1400        78
    20.2000        62
    20.2600        54
    20.3200        66
    20.3800        90
    20.4400        82
    20.5000        82
    20.5600       128
    20.6200       164
    20.6800       140
    20.7400       134
    20.8000       126
    20.8600        88
    20.9200        80
    20.9800        62
    21.0400        76
    21.1000        64
    21.1600        74
    21.2200        86
    21.2800        72
    21.3400        92
    21.4000       112
    21.4600       124
    21.5200       204
    21.5800       268
    21.6400       488
    21.7000       938
    21.7600      1700
    21.8200      2414
    21.8800      1842
    21.9400      1010
    22.0000       458
    22.0600       224
    22.1200       184
    22.1800       188
    22.2400       148
    22.3000        82
    22.3600        82
    22.4200        74
    22.4800        56
    22.5400        74
    22.6000        54
    22.6600        52
    22.7200        50
    22.7800        58
    22.8400        54
    22.9000        48
    22.9600        50
    23.0200        50
    23.0800        56
    23.1400        58
    23.2000        46
    23.2600        58
    23.3200        52
    23.3800        86
    23.4400        92
    23.5000        56
    23.5600        86
    23.6200        78
    23.6800       122
    23.7400       104
    23.8000        88
    23.8600        76
    23.9200        78
    23.9800       100
    24.0400       100
    24.1000        66
    24.1600        68
    24.2200        56
    24.2800        60
    24.3400        42
    24.4000        44
    24.4600        60
    24.5200        56
    24.5800        56
    24.6400        50
    24.7000        38
    24.7600        50
    24.8200        64
    24.8800        30
    24.9400        56
    25.0000        60
    25.0600        58
    25.1200        48
    25.1800        50
    25.2400        68
    25.3000        76
    25.3600        98
    25.4200        98
    25.4800       134
    25.5400       128
    25.6000       116
    25.6600       140
    25.7200       114
    25.7800        66
    25.8400        86
    25.9000        74
    25.9600       106
    26.0200       138
    26.0800       196
    26.1400       204
    26.2000       314
    26.2600       240
    26.3200       216
    26.3800       264
    26.4400       210
    26.5000        98
    26.5600        70
    26.6200        48
    26.6800        62
    26.7400        42
    26.8000        50
    26.8600        44
    26.9200        56
    26.9800        38
    27.0400        62
    27.1000        58
    27.1600        74
    27.2200        24
    27.2800        58
    27.3400        40
    27.4000        52
    27.4600        50
    27.5200        52
    27.5800        44
    27.6400        66
    27.7000        74
    27.7600       120
    27.8200       174
    27.8800       316
    27.9400       250
    28.0000       192
    28.0600        96
    28.1200        90
    28.1800        88
    28.2400        74
    28.3000        66
    28.3600        68
    28.4200        72
    28.4800       106
    28.5400       100
    28.6000       130
    28.6600        96
    28.7200        74
    28.7800        92
    28.8400        70
    28.9000       138
    28.9600       138
    29.0200       200
    29.0800       318
    29.1400       670
    29.2000      1360
    29.2600      2182
    29.3200      2206
    29.3800      1532
    29.4400       934
    29.5000       578
    29.5600       338
    29.6200       246
    29.6800       232
    29.7400       244
    29.8000       238
    29.8600       344
    29.9200       250
    29.9800       204
    30.0400       138
    30.1000       180
    30.1600       204
    30.2200       140
    30.2800        66
    30.3400        38
    30.4000        56
    30.4600        66
    30.5200        58
    30.5800        58
    30.6400        48
    30.7000        50
    30.7600        90
    30.8200        86
    30.8800       114
    30.9400       230
    31.0000       234
    31.0600       190
    31.1200        98
    31.1800        92
    31.2400        44
    31.3000        70
    31.3600        42
    31.4200        60
    31.4800        50
    31.5400        62
    31.6000       100
    31.6600       124
    31.7200       126
    31.7800       128
    31.8400       110
    31.9000       146
    31.9600       192
    32.0200       394
    32.0800       620
    32.1400       590
    32.2000       374
    32.2600       202
    32.3200       110
    32.3800        68
    32.4400        82
    32.5000        64
    32.5600        72
    32.6200        70
    32.6800        74
    32.7400       106
    32.8000       142
    32.8600       130
    32.9200        88
    32.9800        60
    33.0400        48
    33.1000        60
    33.1600        54
    33.2200        56
    33.2800        58
    33.3400        62
    33.4000        50
    33.4600        50
    33.5200        60
    33.5800        60
    33.6400        62
    33.7000        66
    33.7600        58
    33.8200        50
    33.8800        56
    33.9400        56
    34.0000        62
    34.0600        68
    34.1200        70
    34.1800        80
    34.2400        78
    34.3000        78
    34.3600        78
    34.4200        98
    34.4800       114
    34.5400       122
    34.6000       116
    34.6600       124
    34.7200       148
    34.7800       130
    34.8400       148
    34.9000       142
    34.9600       152
    35.0200       162
    35.0800       134
    35.1400        94
    35.2000        98
    35.2600       156
    35.3200       202
    35.3800       164
    35.4400       126
    35.5000       124
    35.5600       130
    35.6200       186
    35.6800       256
    35.7400       166
    35.8000       108
    35.8600        86
    35.9200        74
    35.9800        84
    36.0400       102
    36.1000       116
    36.1600       104
    36.2200        78
    36.2800        94
    36.3400        98
    36.4000        86
    36.4600        90
    36.5200        80
    36.5800        62
    36.6400        66
    36.7000        94
    36.7600        82
    36.8200        82
    36.8800        68
    36.9400        48
    37.0000        54
    37.0600        42
    37.1200        38
    37.1800        56
    37.2400        42
    37.3000        50
    37.3600        30
    37.4200        38
    37.4800        32
    37.5400        44
    37.6000        68
    37.6600        44
    37.7200        52
    37.7800        46
    37.8400        76
    37.9000        76
    37.9600        86
    38.0200       150
    38.0800       176
    38.1400       204
    38.2000       190
    38.2600       136
    38.3200       138
    38.3800        74
    38.4400        68
    38.5000        66
    38.5600        50
    38.6200        56
    38.6800        64
    38.7400        58
    38.8000        58
    38.8600        62
    38.9200        66
    38.9800        68
    39.0400        76
    39.1000        64
    39.1600        50
    39.2200        54
    39.2800        64
    39.3400        58
    39.4000        64
    39.4600        64
    39.5200        46
    39.5800        52
    39.6400        56
    39.7000        50
    39.7600        52
    39.8200        40
    39.8800        52
    39.9400        64
    40.0000        68
    40.0600        92
    40.1200        68
    40.1800        88
    40.2400       106
    40.3000        90
    40.3600        86
    40.4200        88
    40.4800        86
    40.5400       120
    40.6000        82
    40.6600        98
    40.7200        96
    40.7800        68
    40.8400        72
    40.9000        62
    40.9600        56
    41.0200        72
    41.0800        38
    41.1400        58
    41.2000        52
    41.2600        60
    41.3200        48
    41.3800        68
    41.4400        58
    41.5000        44
    41.5600        68
    41.6200        80
    41.6800        90
    41.7400        80
    41.8000        66
    41.8600        70
    41.9200        54
    41.9800        48
    42.0400        58
    42.1000        62
    42.1600        44
    42.2200        48
    42.2800        60
    42.3400        70
    42.4000        88
    42.4600       118
    42.5200       130
    42.5800       116
    42.6400       102
    42.7000        60
    42.7600       100
    42.8200        96
    42.8800       114
    42.9400       128
    43.0000       112
    43.0600        76
    43.1200        58
    43.1800        56
    43.2400        54
    43.3000        62
    43.3600        84
    43.4200        74
    43.4800        76
    43.5400        74
    43.6000        90
    43.6600        74
    43.7200        96
    43.7800       106
    43.8400        82
    43.9000        92
    43.9600       116
    44.0200       100
    44.0800        82
    44.1400        60
    44.2000        80
    44.2600        66
    44.3200        64
    44.3800        76
    44.4400       126
    44.5000       156
    44.5600       162
    44.6200       128
    44.6800       102
    44.7400        78
    44.8000        62
    44.8600        66
    44.9200        46
    44.9800        66
    45.0400        48
    45.1000        56
    45.1600        56
    45.2200        64
    45.2800        84
    45.3400        82
    45.4000       102
    45.4600        80
    45.5200        56
    45.5800        52
    45.6400        52
    45.7000        48
    45.7600        36
    45.8200        58
    45.8800        44
    45.9400        52
    46.0000        50
    46.0600        48
    46.1200        60
    46.1800        36
    46.2400        38
    46.3000        44
    46.3600        44
    46.4200        52
    46.4800        76
    46.5400        50
    46.6000        46
    46.6600        60
    46.7200        54
    46.7800        44
    46.8400        36
    46.9000        52
    46.9600        46
    47.0200        44
    47.0800        52
    47.1400        54
    47.2000        50
    47.2600        52
    47.3200        64
    47.3800        58
    47.4400        52
    47.5000        50
    47.5600        72
    47.6200       112
    47.6800       134
    47.7400       178
    47.8000       164
    47.8600       160
    47.9200       130
    47.9800        82
    48.0400        82
    48.1000        72
    48.1600        84
    48.2200        56
    48.2800        74
    48.3400        96
    48.4000        98
    48.4600        90
    48.5200        96
    48.5800        78
    48.6400        68
    48.7000        68
    48.7600        68
    48.8200        64
    48.8800        58
    48.9400        56
    49.0000        58
    49.0600        76
    49.1200        86
    49.1800        82
    49.2400        82
    49.3000       110
    49.3600       118
    49.4200       126
    49.4800       144
    49.5400       162
    49.6000       254
    49.6600       398
    49.7200       966
    49.7800      1424
    49.8400      2404
    49.9000      1490
    49.9600      1272
    50.0200       678
    50.0800       268
    50.1400       178
    50.2000       122
    50.2600        90
    50.3200       112
    50.3800       146
    50.4400       122
    50.5000       104
    50.5600        96
    50.6200        62
    50.6800        72
    50.7400        62
    50.8000        96
    50.8600       122
    50.9200       150
    50.9800       128
    51.0400       112
    51.1000        86
    51.1600        80
    51.2200        92
    51.2800       102
    51.3400       212
    51.4000        98
    51.4600       124
    51.5200        78
    51.5800        60
    51.6400        44
    51.7000        34
    51.7600        58
    51.8200        40
    51.8800        46
    51.9400        40
    52.0000        56
    52.0600        62
    52.1200        44
    52.1800        62
    52.2400        46
    52.3000        46
    52.3600        54
    52.4200        56
    52.4800        58
    52.5400        54
    52.6000        82
    52.6600       106
    52.7200       106
    52.7800       124
    52.8400       142
    52.9000       124
    52.9600        94
    53.0200        82
    53.0800        74
    53.1400        46
    53.2000        30
    53.2600        36
    53.3200        44
    53.3800        44
    53.4400        36
    53.5000        62
    53.5600        42
    53.6200        46
    53.6800        46
    53.7400        36
    53.8000        64
    53.8600        48
    53.9200        62
    53.9800        54
    54.0400        46
    54.1000        58
    54.1600        52
    54.2200        66
    54.2800        52
    54.3400        64
    54.4000        50
    54.4600        72
    54.5200        60
    54.5800        58
    54.6400        64
    54.7000        72
    54.7600        86
    54.8200        68
    54.8800        66
    54.9400        68
    55.0000        58
    55.0600        40
    55.1200        54
    55.1800        48
    55.2400        32
    55.3000        58
    55.3600        62
    55.4200        80
    55.4800        54
    55.5400        78
    55.6000        54
    55.6600        50
    55.7200        68
    55.7800        86
    55.8400        98
    55.9000       100
    55.9600       134
    56.0200        96
    56.0800       104
    56.1400        68
    56.2000        50
    56.2600        44
    56.3200        52
    56.3800        46
    56.4400        48
    56.5000        52
    56.5600        48
    56.6200        24
    56.6800        44
    56.7400        42
    56.8000        40
    56.8600        48
    56.9200        36
    56.9800        50
    57.0400        64
    57.1000        90
    57.1600        56
    57.2200        50
    57.2800        60
    57.3400        58
    57.4000        54
    57.4600        62
    57.5200        72
    57.5800        88
    57.6400       126
    57.7000       140
    57.7600       162
    57.8200       162
    57.8800       120
    57.9400       164
    58.0000       168
    58.0600       118
    58.1200       108
    58.1800        74
    58.2400        70
    58.3000        82
    58.3600        66
    58.4200        54
    58.4800        64
    58.5400        54
    58.6000        60
    58.6600        50
    58.7200        54
    58.7800        56
    58.8400        68
    58.9000        62
    58.9600        64
    59.0200        70
    59.0800        60
    59.1400        96
    59.2000        92
    59.2600       156
    59.3200       174
    59.3800       148
    59.4400       154
    59.5000       138
    59.5600       106
    59.6200        98
    59.6800        74
    59.7400        80
    59.8000        80
    59.8600        52
    59.9200        44
    59.9800        52
    60.0400        54
    60.1000        38
    60.1600        48
    60.2200        52
    60.2800        40
    60.3400        44
    60.4000        42
    60.4600        46
    60.5200        46
    60.5800        46
    60.6400        60
    60.7000       106
    60.7600        96
    60.8200        84
    60.8800        74
    60.9400        72
    61.0000        54
    61.0600        48
    61.1200        60
    61.1800        38
    61.2400        58
    61.3000        44
    61.3600        68
    61.4200        46
    61.4800        54
    61.5400        48
    61.6000        54
    61.6600        54
    61.7200        54
    61.7800        74
    61.8400        70
    61.9000        70
    61.9600        84
    62.0200        52
    62.0800        76
    62.1400        56
    62.2000        50
    62.2600        36
    62.3200        56
    62.3800        46
    62.4400        50
    62.5000        50
    62.5600        48
    62.6200        46
    62.6800        40
    62.7400        54
    62.8000        50
    62.8600        46
    62.9200        42
    62.9800        54
    63.0400        50
    63.1000        46
    63.1600        46
    63.2200        52
    63.2800        60
    63.3400        66
    63.4000        76
    63.4600        70
    63.5200        46
    63.5800        50
    63.6400        62
    63.7000        44
    63.7600        32
    63.8200        44
    63.8800        46
    63.9400        50
    64.0000        38
    64.0600        36
    64.1200        48
    64.1800        62
    64.2400        50
    64.3000        62
    64.3600        70
    64.4200        54
    64.4800       114
    64.5400       128
    64.6000       134
    64.6600       138
    64.7200       124
    64.7800       110
    64.8400       100
    64.9000        86
    64.9600        72
    65.0000        72